time,double_support,RT_single_support,LT_single_support,Pelvis_A_X,Pelvis_A_Y,Pelvis_A_Z,Lower spine_A_X,Lower spine_A_Y,Lower spine_A_Z,Upper spine_A_X,Upper spine_A_Y,Upper spine_A_Z,Pelvis_Gyro_X,Pelvis_Gyro_Y,Pelvis_Gyro_Z,Lower spine_Gyro_X,Lower spine_Gyro_Y,Lower spine_Gyro_Z,Upper spine_Gyro_X,Upper spine_Gyro_Y,Upper spine_Gyro_Z
0.0,1,0,0,9.758765966796876,-0.08798691101319384,0.893635769641062,9.797073193359376,0.054767362977300046,-0.110881464431955,9.165003955078125,0.12389993587631101,3.4644098024912604,-1.33984375,1.061523438,0.2489013672,-0.8120117188,1.079101563,-0.2736816406,-0.525390625,0.8510742188,-0.1743164063
0.005,1,0,0,9.773131177248146,-0.0989104560821405,0.8834604126466895,9.78270798388877,0.059967269708718046,-0.1500865165741095,9.160215552248145,0.1246481239410785,3.4548329958506354,-1.596679688,0.8940429688,0.1810302734,-0.7963867188,1.056640625,-0.2890625,-0.3054199219,0.9213867188,-0.09942626953
0.01,1,0,0,9.74918916015625,-0.09270049552702961,0.8852560638059985,9.792284790529395,0.06842179432083835,-0.146869308042709,9.165003955078125,0.1051952354339215,3.459621398680615,-1.802734375,0.8837890625,0.2641601563,-0.7700195313,1.00390625,-0.1047973633,-0.4125976563,1.004882813,-0.1375732422
0.015,1,0,0,9.758765966796876,-0.1019032081450775,0.8930372192873145,9.797073193359376,0.07594108390593585,-0.135422031387265,9.160215552248145,0.10878653794867249,3.46680400390625,-1.696289063,0.8540039063,0.1733398438,-1.033203125,0.9848632813,0.04797363281,-0.06256103516,1.15234375,-0.003107070923
0.02,1,0,0,9.753977563966895,-0.101753570532124,0.9074024292482521,9.81622681154395,0.0802057556201377,-0.153827456701814,9.145850341796875,0.1377414142409445,3.4739866091318854,-1.697265625,0.9399414063,0.271484375,-1.115234375,1.043945313,-0.0461730957,-0.0006394386292,1.015625,0.06610107422
0.025,1,0,0,9.74918916015625,-0.06333411579423215,0.9020154754761255,9.82580361328125,0.086191259765625,-0.155473470346236,9.174580761718751,0.135496850242775,3.4644098024912604,-1.704101563,0.9248046875,0.3024902344,-1.09375,1.112304688,-0.06060791016,0.120300293,1.17578125,-0.06518554688
0.03,1,0,0,9.773131177248146,-0.09696516724123146,0.900818374670564,9.80665,0.06759878749862736,-0.1306336280669525,9.145850341796875,0.11821370697634401,3.4548329958506354,-1.690429688,0.994140625,0.2866210938,-1.240234375,1.072265625,-0.2413330078,-0.0927734375,1.114257813,-0.04849243164
0.035,1,0,0,9.76355437060752,-0.08910919304169855,0.8954314208984375,9.80665,0.08304887008973451,-0.1459714824630545,9.16979235888877,0.1246481239410785,3.4548329958506354,-1.556640625,0.8569335938,0.3117675781,-1.188476563,1.00390625,-0.1173095703,-0.07702636719,1.036132813,-0.2312011719
0.04,1,0,0,9.76355437060752,-0.09232640152406581,0.9211690887573755,9.80665,0.08132803763883575,-0.142604636416767,9.174580761718751,0.1177647941374835,3.4620156010762697,-1.608398438,0.708984375,0.275390625,-1.237304688,0.919921875,-0.1954345703,-0.2668457031,0.9350585938,-0.359375
0.045,1,0,0,9.76355437060752,-0.10392331577285001,0.915782134985249,9.81622681154395,0.06471826363069551,-0.1336263801298895,9.179369165529396,0.11110592080235202,3.4428619877950197,-1.833007813,0.859375,0.1802978516,-1.041992188,0.9379882813,0.1324462891,0.07513427734,1.06640625,-0.3696289063
0.05,1,0,0,9.7683427734375,-0.0944213279681217,0.909796630859375,9.80665,0.08589198455933131,-0.148515321687131,9.179369165529396,0.11948562663741549,3.45004459203999,-1.91796875,0.8266601563,0.1881103516,-0.8969726563,0.931640625,-0.09167480469,-0.1685791016,1.043945313,-0.1318359375
0.055,1,0,0,9.78270798388877,-0.0729483318331922,0.9337386474609375,9.81622681154395,0.06273556537183811,-0.16415245130914,9.16979235888877,0.1348234810335175,3.459621398680615,-1.83984375,0.7958984375,0.1124267578,-0.7280273438,0.8657226563,-0.07879638672,-0.1990966797,1.051757813,-0.03994750977
0.06,1,0,0,9.753977563966895,-0.10018237574321201,0.9115922821167505,9.835380424825201,0.05446808777100635,-0.1479167713333835,9.174580761718751,0.13669395104833648,3.459621398680615,-1.83203125,0.7661132813,0.1583251953,-0.6865234375,1.04296875,-0.09399414063,-0.1154174805,1.053710938,0.04385375977
0.065,1,0,0,9.777919580078125,-0.08746317939727656,0.9343371979127515,9.82580361328125,0.05738602103727325,-0.1418564483519995,9.165003955078125,0.1366191321928265,3.4620156010762697,-1.806640625,0.3410644531,0.1641845703,-0.544921875,1.137695313,-0.06628417969,-0.09069824219,0.8002929688,-0.09216308594
0.07,1,0,0,9.777919580078125,-0.0960673416125437,0.925358941625874,9.81622681154395,0.042609307675036893,-0.12494739916698551,9.16979235888877,0.127191963165155,3.457227197265625,-2.025390625,0.4587402344,-0.01425170898,-0.326171875,1.002929688,-0.1123046875,-0.02313232422,0.9682617188,-0.1624755859
0.075,1,0,0,9.74918916015625,-0.094122052761828,0.919971987951814,9.81622681154395,0.051437926290121,-0.125097036779939,9.193734375,0.1149964984449435,3.4739866091318854,-1.870117188,0.4311523438,0.07879638672,-0.4733886719,1.0234375,-0.0559387207,0.03179931641,0.7387695313,-0.1156616211
0.08,1,0,0,9.758765966796876,-0.08177695045808295,0.910395181311189,9.81622681154395,0.06198737735610385,-0.12689268803731452,9.179369165529396,0.105644148272782,3.46680400390625,-1.82421875,0.6762695313,-0.2149658203,-0.2712402344,1.233398438,-0.09552001953,-0.01477813721,0.861328125,-0.1235351563
0.085,1,0,0,9.773131177248146,-0.07653963431852324,0.9247603912721265,9.82580361328125,0.0476595767935014,-0.128389064068783,9.179369165529396,0.10182838938763401,3.46919820532124,-1.830078125,0.6787109375,0.006656646729,-0.2380371094,1.294921875,0.02027893066,-0.04620361328,0.9912109375,-0.1394042969
0.09,1,0,0,9.777919580078125,-0.109160631932023,0.9487024078736891,9.82580361328125,0.052971711729731204,-0.12704232555220152,9.184157568359375,0.0906803878796438,3.4739866091318854,-1.688476563,0.5278320313,0.124206543,-0.3354492188,1.208984375,-0.2197265625,0.3190917969,1.084960938,-0.1115722656
0.095,1,0,0,9.758765966796876,-0.109759182383837,0.954687911999563,9.82580361328125,0.05386953735841895,-0.11813888812083399,9.174580761718751,0.09150339470185481,3.46680400390625,-1.080078125,0.7138671875,-0.02809143066,-0.3400878906,1.254882813,-0.3422851563,0.294921875,1.298828125,-0.03634643555
0.1,1,0,0,9.777919580078125,-0.106392336239483,0.9445125549071239,9.82580361328125,0.050315644261616305,-0.1349731185484045,9.16979235888877,0.08918401183836866,3.4715924077168947,-0.9614257813,0.5375976563,-0.04037475586,-0.3518066406,1.0703125,-0.06707763672,0.1961669922,1.267578125,-0.1427001953
0.105,1,0,0,9.753977563966895,-0.10265139620984501,0.9307458953980006,9.80186159717002,0.04548983154296875,-0.119784901765256,9.16979235888877,0.1010802013228665,3.4859576171875,-0.935546875,0.4145507813,-0.01558685303,-0.56640625,1.350585938,0.00270652771,0.2418212891,1.260742188,-0.1123657227
0.11,1,0,0,9.773131177248146,-0.08559270935303759,0.922964740014751,9.82580361328125,0.06890811652861395,-0.11566986775226751,9.145850341796875,0.11282675320421749,3.497928625243115,-1.024414063,0.3366699219,0.07678222656,-0.7333984375,1.225585938,-0.1942138672,0.09057617188,1.069335938,0.02716064453
0.115,1,0,0,9.758765966796876,-0.08065466842957825,0.9313444458498146,9.81622681154395,0.0729483318331922,-0.123974754731821,9.150638745607521,0.11065700796349151,3.497928625243115,-1.189453125,0.4658203125,0.09710693359,-1.224609375,1.142578125,-0.06573486328,-0.0005993843079,1.015625,0.07397460938
0.12,1,0,0,9.74918916015625,-0.0867149913815423,0.9205705383055615,9.80665,0.08357260169584516,-0.129660983631788,9.160215552248145,0.1062426986265295,3.495534423828125,-1.081054688,0.4274902344,-0.03189086914,-1.615234375,1.197265625,-0.09375,-0.01652526855,1.107421875,0.08117675781
0.125,1,0,0,9.76355437060752,-0.07646481552185315,0.9217676392091896,9.81622681154395,0.07451952667113745,-0.1019780270005875,9.160215552248145,0.1101332763671875,3.5098996342793947,-0.8383789063,0.5400390625,0.02153015137,-2.1015625,1.280273438,-0.2012939453,0.1292724609,0.9638671875,0.1270751953
0.13,1,0,0,9.753977563966895,-0.08297405128325774,0.910395181311189,9.792284790529395,0.05955576629761255,-0.09000701866057964,9.136273535156251,0.0960673416125437,3.50511123046875,-0.9345703125,0.3764648438,0.04623413086,-2.091796875,1.235351563,-0.04043579102,0.3420410156,1.09375,0.1099243164
0.135,1,0,0,9.74440075732627,-0.0775122787438811,0.912789382922312,9.792284790529395,0.06494272003051245,-0.11275193444677399,9.1554271484375,0.103175127806149,3.517082238524365,-0.9794921875,0.3603515625,0.06915283203,-1.83984375,1.331054688,-0.07769775391,0.5400390625,1.157226563,0.2075195313
0.14,1,0,0,9.76355437060752,-0.0906803878796438,0.909796630859375,9.78749638671875,0.06303484058793846,-0.104821141450571,9.160215552248145,0.1197100830078125,3.5194764409200197,-1.201171875,0.6264648438,-0.03494262695,-1.645507813,1.134765625,-0.30859375,0.5024414063,1.072265625,0.2313232422
0.145,1,0,0,9.76355437060752,-0.07766191634702796,0.9014169250243115,9.80186159717002,0.059742813299094456,-0.10392331577285001,9.1554271484375,0.10758943714311099,3.5218706423350103,-1.40625,0.5947265625,0.1632080078,-1.544921875,1.083007813,-0.01435852051,0.45703125,1.01171875,0.3005371094
0.15,1,0,0,9.758765966796876,-0.07560439930130711,0.891241568029939,9.80186159717002,0.049380409244400146,-0.09861118085623351,9.150638745607521,0.1002571945006555,3.5098996342793947,-1.62890625,0.2727050781,0.07440185547,-1.494140625,1.098632813,-0.1960449219,0.4340820313,1.03515625,0.3693847656
0.155,1,0,0,9.758765966796876,-0.07298574123152725,0.906205328344624,9.78749638671875,0.0474725297920195,-0.11177929001160951,9.150638745607521,0.11566986775226751,3.517082238524365,-1.845703125,0.3881835938,0.31640625,-1.4609375,0.9702148438,-0.1956787109,0.4265136719,1.013671875,0.544921875
0.16,1,0,0,9.74918916015625,-0.0756792180979772,0.9074024292482521,9.80186159717002,0.0335749373445934,-0.0918774887048186,9.141061938966896,0.12262801631330601,3.5218706423350103,-2.109375,0.5395507813,0.3591308594,-1.43359375,0.9555664063,-0.08807373047,0.4643554688,1.049804688,0.3540039063
0.165,1,0,0,9.758765966796876,-0.08626607857210175,0.9050082275390625,9.78749638671875,0.044666824720757746,-0.09689034843475469,9.145850341796875,0.09876081846918701,3.52426484375,-2.134765625,0.3527832031,0.3229980469,-1.5703125,0.869140625,-0.06921386719,0.6547851563,1.103515625,0.1918945313
0.17,1,0,0,9.753977563966895,-0.110282913980141,0.887051715063374,9.80186159717002,0.049604865644217094,-0.09030629386687336,9.136273535156251,0.09950900653395449,3.533841650390625,-1.909179688,0.4497070313,0.3615722656,-1.44140625,0.7866210938,-0.1871337891,0.6162109375,1.149414063,0.2145996094
0.175,1,0,0,9.74440075732627,-0.1051952354339215,0.8924386688355005,9.792284790529395,0.057610477446896846,-0.07960720519774366,9.13148513232627,0.105344873046875,3.517082238524365,-1.893554688,0.4721679688,0.2846679688,-1.219726563,0.7133789063,-0.1185913086,0.4113769531,1.057617188,0.3540039063
0.18,1,0,0,9.753977563966895,-0.0918774887048186,0.8768763580690015,9.78749638671875,0.06902034473342575,-0.09472060318422205,9.13148513232627,0.13220482295393102,3.514688037109375,-1.775390625,0.3178710938,0.1650390625,-1.203125,0.7514648438,-0.1867675781,0.4875488281,1.012695313,0.3078613281
0.185,1,0,0,9.76355437060752,-0.094945059584039,0.8822633117430615,9.777919580078125,0.0679728815113978,-0.113574941268985,9.102754712404396,0.126443775198454,3.53863005420127,-1.904296875,0.5703125,0.08422851563,-1.188476563,0.6450195313,-0.1098022461,0.6235351563,1.1640625,0.2301025391
0.19,1,0,0,9.773131177248146,-0.08252513847381719,0.8954314208984375,9.78270798388877,0.07074117717451785,-0.107514618287601,9.11233151904502,0.11552023013931399,3.5218706423350103,-2.00390625,0.5600585938,0.03033447266,-1.1484375,0.69921875,-0.1850585938,0.4111328125,1.111328125,0.3000488281
0.195,1,0,0,9.773131177248146,-0.10833762510981201,0.9217676392091896,9.777919580078125,0.0760907215090827,-0.0971896236410484,9.09796630859375,0.11761515652452999,3.52665904516499,-1.858398438,0.6357421875,0.2978515625,-1.147460938,0.8520507813,-0.108581543,0.5102539063,1.025390625,0.07104492188
0.2,1,0,0,9.777919580078125,-0.084545246121203,0.918774887048186,9.797073193359376,0.0764274061235181,-0.09599252281587359,9.107543115234375,0.12150573426518799,3.5314474489756353,-1.720703125,0.5810546875,0.100402832,-0.787109375,0.5141601563,-0.1429443359,0.6479492188,1.005859375,0.3757324219
0.205,1,0,0,9.78749638671875,-0.09726444244752515,0.909198080407561,9.773131177248146,0.09674071083160786,-0.094945059584039,9.09796630859375,0.1415571731260925,3.533841650390625,-1.478515625,0.7319335938,0.07678222656,-0.837890625,0.5131835938,-0.2364501953,0.6240234375,1.111328125,0.2529296875
0.21,1,0,0,9.773131177248146,-0.08462006492767975,0.9050082275390625,9.78270798388877,0.0981622681154395,-0.1174655189115765,9.117119921875,0.111928927624563,3.5218706423350103,-1.4609375,0.5688476563,-0.01273345947,-0.8911132813,0.4584960938,-0.1766357422,0.6254882813,0.9741210938,0.3227539063
0.215,1,0,0,9.74918916015625,-0.08768763580690014,0.9247603912721265,9.78749638671875,0.0738461574520733,-0.09591770400939685,9.126696728515626,0.125545949520733,3.52665904516499,-1.490234375,0.607421875,0.09375,-0.9858398438,0.2580566406,-0.1721191406,0.5029296875,0.9580078125,0.2470703125
0.22,1,0,0,9.739612353515625,-0.0805050308264314,0.9217676392091896,9.78749638671875,0.0658405456592002,-0.07668927193147676,9.141061938966896,0.131007722050303,3.5098996342793947,-1.684570313,0.3017578125,-0.01791381836,-0.9765625,0.3957519531,-0.3403320313,0.5341796875,0.9653320313,0.2619628906
0.225,1,0,0,9.739612353515625,-0.09105448189241426,0.928351693688811,9.777919580078125,0.059593175695947596,-0.09838672448583649,9.165003955078125,0.128837976809577,3.514688037109375,-1.951171875,0.55078125,-0.2064208984,-0.796875,0.2459716797,-0.3498535156,0.4340820313,1.00390625,0.3005371094
0.23,1,0,0,9.753977563966895,-0.08252513847381719,0.937928500329436,9.78270798388877,0.0717138215998757,-0.1016787517746805,9.141061938966896,0.13676876980577998,3.52665904516499,-2.154296875,0.3618164063,-0.1898193359,-0.8491210938,0.3366699219,-0.2211914063,0.404296875,0.9345703125,0.2631835938
0.235,1,0,0,9.753977563966895,-0.103399584176546,0.9301473449461864,9.78749638671875,0.08245031966734044,-0.1002571945006555,9.150638745607521,0.1262193187299905,3.52665904516499,-2.421875,0.4602050781,-0.01661682129,-0.931640625,0.3198242188,-0.2313232422,0.3740234375,0.8974609375,0.4392089844
0.24,1,0,0,9.777919580078125,-0.10938508830242,0.9265560425295021,9.80186159717002,0.098985274839584,-0.11768997538004,9.13148513232627,0.140060797094624,3.52426484375,-2.171875,0.7641601563,-0.1722412109,-1.373046875,0.3823242188,-0.07763671875,0.2905273438,0.828125,0.4091796875
0.245,1,0,0,9.797073193359376,-0.104521866224664,0.909796630859375,9.797073193359376,0.11671733094487549,-0.1245733050855685,9.13148513232627,0.156820208764751,3.536235851805615,-1.836914063,0.892578125,-0.2639160156,-2.068359375,0.4560546875,0.08282470703,0.3901367188,0.7592773438,0.3635253906
0.25,1,0,0,9.777919580078125,-0.096591073228461,0.9121908325685646,9.80665,0.13444938695210049,-0.123974754731821,9.1554271484375,0.170137955435014,3.54341845703125,-1.767578125,0.5776367188,-0.1293945313,-2.486328125,0.3959960938,0.07696533203,0.3215332031,0.7739257813,0.3178710938
0.255,1,0,0,9.7683427734375,-0.09075520667631391,0.9307458953980006,9.82580361328125,0.0895581058511391,-0.09382277755553431,9.16979235888877,0.1479167713333835,3.5601778688975103,-1.828125,0.5532226563,-0.1447753906,-2.478515625,0.3107910156,-0.05972290039,0.4506835938,0.8505859375,0.3015136719
0.26,1,0,0,9.777919580078125,-0.1245733050855685,0.937928500329436,9.82580361328125,0.06352116279571406,-0.07167641220154065,9.174580761718751,0.14021043470757752,3.552995263671875,-1.887695313,0.7841796875,-0.2476806641,-1.852539063,0.1746826172,-0.5209960938,0.5356445313,0.6889648438,-0.01082611084
0.265,1,0,0,9.758765966796876,-0.10137947654877351,0.951695159936626,9.835380424825201,0.06984335155563676,-0.06973112335082496,9.188945972170021,0.1123778404634235,3.533841650390625,-2.287109375,0.8461914063,-0.3195800781,-0.4934082031,0.3645019531,-0.6303710938,0.5126953125,0.6572265625,-0.1251220703
0.27,1,0,0,9.76355437060752,-0.116567693331922,0.960673416125437,9.82580361328125,0.04743512039368445,-0.045377603338156956,9.160215552248145,0.09382277755553431,3.5290532475606446,-2.09765625,0.8559570313,-0.4030761719,0.8759765625,0.1791992188,-0.8154296875,0.681640625,0.5786132813,-0.5
0.275,1,0,0,9.777919580078125,-0.128314245213273,0.9469067566163135,9.80665,0.02764554729170535,-0.05577741680099295,9.141061938966896,0.059742813299094456,3.50750543188374,-1.94921875,0.7734375,-0.3549804688,1.748046875,0.3605957031,-0.9931640625,0.3908691406,0.677734375,-0.3996582031
0.28,1,0,0,9.739612353515625,-0.120158995846673,0.9504980591310646,9.797073193359376,0.047547348598496256,-0.0926256767303595,9.141061938966896,0.056787470624685844,3.50750543188374,-1.877929688,0.6748046875,-0.2998046875,1.920898438,0.4870605469,-0.4904785156,0.1015014648,0.6245117188,-0.1916503906
0.285,1,0,0,9.753977563966895,-0.0686462507206553,0.954089361547749,9.80186159717002,0.0646808542225538,-0.13205518534097752,9.102754712404396,0.0690577541317608,3.4859576171875,-1.788085938,0.7685546875,-0.3002929688,1.23046875,0.6669921875,-0.5512695313,0.002599716187,0.5639648438,0.05364990234
0.29,1,0,0,9.730035546875,-0.08267477607696405,0.973242974828999,9.78270798388877,0.099883100517305,-0.1539770943147675,9.09317790576377,0.07328501643782095,3.497928625243115,-1.873046875,0.8388671875,-0.1639404297,-0.2800292969,0.7583007813,-0.4018554688,0.02416992188,0.7416992188,0.2585449219
0.295,1,0,0,9.730035546875,-0.08634089736877186,0.9582792145143141,9.78749638671875,0.0889595554385517,-0.17043723066092098,9.088389501953126,0.100706107339516,3.5098996342793947,-1.955078125,0.7216796875,-0.1552734375,-2.015625,0.7163085938,-0.2902832031,0.2368164063,0.8740234375,0.4094238281
0.3,1,0,0,9.739612353515625,-0.1005564697265625,0.9457096558107521,9.78749638671875,0.09539397239347955,-0.1462707576889615,9.117119921875,0.137068045031687,3.52665904516499,-2.068359375,0.7529296875,0.04254150391,-3.49609375,0.6162109375,-0.3156738281,0.4438476563,0.7075195313,0.5771484375
0.305,1,0,0,9.753977563966895,-0.08678981017821241,0.937928500329436,9.792284790529395,0.07676409072814684,-0.11312602843012451,9.126696728515626,0.140360072320531,3.5122938356943854,-2.3046875,0.673828125,0.203125,-4.015625,0.4401855469,-0.2176513672,0.4526367188,0.546875,0.5864257813
0.31,1,0,0,9.758765966796876,-0.10721534306169399,0.9498995086792505,9.78270798388877,0.0753799428916835,-0.08806172980986395,9.145850341796875,0.1490390533815015,3.5003228276387697,-2.591796875,0.4372558594,0.2047119141,-3.765625,0.306640625,0.05072021484,0.376953125,0.4470214844,0.5258789063
0.315,1,0,0,9.74440075732627,-0.094945059584039,0.931942996203562,9.80186159717002,0.0882113674130108,-0.0693570293380545,9.179369165529396,0.17043723066092098,3.5027170290537604,-3.033203125,0.4143066406,0.1948242188,-3.140625,0.1561279297,0.1936035156,0.2308349609,0.6518554688,0.3732910156
0.32,1,0,0,9.758765966796876,-0.105644148272782,0.9277531433350635,9.835380424825201,0.08604162216247814,-0.066214639662164,9.20809958545127,0.17058686827387448,3.5218706423350103,-3.28515625,0.2543945313,0.06561279297,-2.396484375,0.09954833984,0.3937988281,0.2604980469,0.7416992188,0.05926513672
0.325,1,0,0,9.753977563966895,-0.1104325515930945,0.9498995086792505,9.835380424825201,0.09434650917145161,-0.06363339100052585,9.21288798828125,0.147542677350033,3.533841650390625,-3.64453125,0.1959228516,0.2097167969,-2.056640625,0.3566894531,0.2905273438,0.3369140625,0.7778320313,-0.2319335938
0.33,1,0,0,9.7683427734375,-0.1358709442261255,0.9630676178346266,9.86411083984375,0.121805009491095,-0.0711152711872883,9.222464794921875,0.1420809047223965,3.552995263671875,-3.51171875,0.1818847656,0.1494140625,-1.55078125,0.41015625,-0.06048583984,0.2763671875,0.6840820313,-0.4831542969
0.335,1,0,0,9.773131177248146,-0.119036713798555,0.963666168188374,9.85453403810645,0.155174195120329,-0.0710030429824765,9.227253198732521,0.136544313435383,3.53863005420127,-3.1953125,0.3474121094,-0.003967285156,-1.404296875,0.6489257813,-0.04034423828,0.125,0.5126953125,-0.84765625
0.34,1,0,0,9.76355437060752,-0.139013333902016,0.9630676178346266,9.8449572265625,0.177619835690423,-0.07870937957886255,9.203311181640625,0.1382651458372485,3.5194764409200197,-2.494140625,0.2277832031,0.0549621582,-1.427734375,0.7626953125,-0.3388671875,-0.09613037109,0.5263671875,-0.9760742188
0.345,1,0,0,9.753977563966895,-0.1307084469224625,0.9600748657716895,9.82580361328125,0.17866729888303098,-0.0689829353350907,9.16979235888877,0.1512087986222275,3.5194764409200197,-2.126953125,0.2264404297,0.1028442383,-1.426757813,0.5786132813,-0.4611816406,-0.2634277344,0.4636230469,-1.104492188
0.35,1,0,0,9.7683427734375,-0.100406832113609,0.9361328491701271,9.80665,0.1919850456513605,-0.07758709755035785,9.13148513232627,0.157119483990658,3.552995263671875,-1.858398438,0.2326660156,0.2570800781,-1.588867188,0.5610351563,-0.666015625,-0.2731933594,0.7451171875,-1.221679688
0.355,1,0,0,9.74918916015625,-0.109684363528327,0.9277531433350635,9.797073193359376,0.1824082390107355,-0.07586626510926575,9.09796630859375,0.167743753823891,3.5601778688975103,-1.80078125,0.4270019531,0.2397460938,-1.348632813,0.5341796875,-0.7885742188,-0.02896118164,0.716796875,-1.123046875
0.36,1,0,0,9.76355437060752,-0.10512041667647799,0.9181763366944385,9.78270798388877,0.14776713372043002,-0.05364508094879535,9.069235888671875,0.17612345965895448,3.5793314821787603,-2.0390625,0.5073242188,0.2069091797,-0.8544921875,0.3962402344,-1.09375,0.162109375,0.6801757813,-0.9184570313
0.365,1,0,0,9.739612353515625,-0.085368252943414,0.891241568029939,9.7683427734375,0.1328033733076785,-0.06310965938460855,9.045293872560645,0.151807348975975,3.57693728076377,-2.39453125,0.580078125,0.2344970703,-0.3559570313,0.4345703125,-1.215820313,0.1486816406,0.421875,-0.7250976563
0.37,1,0,0,9.74440075732627,-0.0842459709149093,0.8942343200928761,9.7683427734375,0.07930792999144995,-0.0889595554385517,9.02135185546875,0.15225626181483548,3.574543078368115,-3.244140625,0.5698242188,0.5434570313,0.01191711426,0.4323730469,-1.233398438,0.3093261719,0.333984375,-0.2371826172
0.375,1,0,0,9.74918916015625,-0.09629179802216731,0.9044096770872485,9.76355437060752,0.0706289489795127,-0.0744821172728024,9.03571706592002,0.12195464710404849,3.5625720703125,-3.6484375,0.4138183594,0.2915039063,0.1155395508,0.4487304688,-1.375,0.005283355713,0.2030029297,-0.1885986328
0.38,1,0,0,9.74918916015625,-0.08738836060060645,0.9205705383055615,9.74440075732627,0.045826516147597494,-0.0783352855660921,9.07402429248252,0.118812257428158,3.548206860841895,-3.98046875,0.5703125,0.2335205078,-0.138671875,0.3686523438,-1.24609375,-0.25390625,0.1799316406,-0.04943847656
0.385,1,0,0,9.730035546875,-0.1003320133561655,0.9343371979127515,9.76355437060752,0.031199440388508,-0.0918774887048186,9.107543115234375,0.11566986775226751,3.552995263671875,-4.046875,0.4692382813,0.2802734375,-0.7495117188,0.1003417969,-1.060546875,-0.5903320313,0.3000488281,-0.1247558594
0.39,1,0,0,9.753977563966895,-0.1149964984449435,0.9343371979127515,9.7683427734375,0.0156745389909241,-0.083722239298992,9.13148513232627,0.13504793740391452,3.5601778688975103,-3.9453125,0.3393554688,0.2749023438,-1.290039063,0.1531982422,-0.88671875,-0.4616699219,0.3684082031,-0.2861328125
0.395,1,0,0,9.734823950685646,-0.1396867031112735,0.9307458953980006,9.7683427734375,0.01706803917451955,-0.07403320446336185,9.145850341796875,0.153528181475907,3.5601778688975103,-3.603515625,0.4111328125,0.03128051758,-1.359375,-0.06176757813,-0.7202148438,-0.5229492188,0.4965820313,-0.5161132813
0.4,1,0,0,9.74918916015625,-0.144175831205679,0.928351693688811,9.773131177248146,0.002160392904381215,-0.0602291355166767,9.160215552248145,0.1560720206999835,3.555389465086865,-3.27734375,0.29296875,0.07275390625,-1.484375,0.09722900391,-0.4870605469,-0.705078125,0.2893066406,-0.4755859375
0.405,1,0,0,9.74440075732627,-0.134673843420564,0.909796630859375,9.792284790529395,0.03022679596315015,-0.07044190196822415,9.165003955078125,0.15502455750737548,3.555389465086865,-3.1875,0.3330078125,0.06518554688,-1.331054688,0.001008033752,-0.2069091797,-0.6733398438,0.1579589844,-0.7041015625
0.41,1,0,0,9.734823950685646,-0.1148468609300565,0.918774887048186,9.80665,0.026485855864865602,-0.06902034473342575,9.1554271484375,0.153004449879603,3.5601778688975103,-3.60546875,0.1304931641,-0.1333007813,-1.213867188,-0.05834960938,-0.2260742188,-0.6513671875,0.2963867188,-0.6284179688
0.415,1,0,0,9.74440075732627,-0.11162965239865599,0.9367313995238745,9.80186159717002,0.05009118786179935,-0.050951604082345406,9.141061938966896,0.13392565535579648,3.5625720703125,-3.90625,0.2498779297,-0.1138305664,-1.03515625,0.02803039551,-0.09710693359,-0.9340820313,0.3637695313,-0.7036132813
0.42,1,0,0,9.74440075732627,-0.12973580248729802,0.9247603912721265,9.80665,0.09906009369509401,-0.06670096187974625,9.11233151904502,0.12270283507074951,3.5625720703125,-4.40234375,0.2817382813,-0.03277587891,-1.370117188,-0.1529541016,-0.01612854004,-0.8657226563,0.3491210938,-0.6123046875
0.425,1,0,0,9.76355437060752,-0.1380406894668515,0.9409212524904396,9.78270798388877,0.111031101946842,-0.07930792999144995,9.102754712404396,0.10324994656359249,3.5625720703125,-4.765625,0.1118164063,-0.1624755859,-1.575195313,-0.1711425781,-0.03091430664,-0.6298828125,0.5107421875,-0.5991210938
0.43,1,0,0,9.76355437060752,-0.135197575016868,0.937928500329436,9.80665,0.117166243783736,-0.07044190196822415,9.09317790576377,0.1046715038376175,3.56496627172749,-4.765625,0.07348632813,-0.1160888672,-2.0234375,0.1431884766,0.1072998047,-0.5537109375,0.451171875,-0.4470214844
0.435,1,0,0,9.7683427734375,-0.11963526425036901,0.9277531433350635,9.792284790529395,0.104821141450571,-0.0639700756051546,9.088389501953126,0.1044470474672205,3.56496627172749,-4.8828125,-7.313489914e-05,-0.2839355469,-1.993164063,-0.07794189453,0.0471496582,-0.4611816406,0.3676757813,-0.4162597656
0.44,1,0,0,9.758765966796876,-0.1188870761856015,0.941519802844187,9.78270798388877,0.11761515652452999,-0.03673603172455475,9.09317790576377,0.11454758570414951,3.567360474123145,-5.203125,0.2056884766,-0.104675293,-2.119140625,-0.2026367188,0.03555297852,-0.7211914063,0.4440917969,-0.2395019531
0.445,1,0,0,9.74918916015625,-0.147542677350033,0.954089361547749,9.773131177248146,0.1245733050855685,-0.06228665256239755,9.102754712404396,0.11035773273758451,3.56496627172749,-5.64453125,0.1837158203,-0.07629394531,-1.95703125,-0.1696777344,-0.02783203125,-0.8842773438,0.8569335938,-0.1875
0.45,1,0,0,9.739612353515625,-0.1541267318296545,0.945111105358938,9.797073193359376,0.09703998603790155,-0.06628945846864075,9.09317790576377,0.1068412490783435,3.572148876953125,-5.96484375,0.1181640625,-0.008750915527,-1.680664063,0.04049682617,0.004623413086,-0.7915039063,0.6508789063,-0.1791992188
0.455,1,0,0,9.74918916015625,-0.1616086120850635,0.947505306970061,9.792284790529395,0.0844704273245329,-0.0669254182795632,9.107543115234375,0.09404723396515789,3.5889082888193853,-5.7734375,0.07373046875,-0.09887695313,-1.224609375,-0.05935668945,-0.07989501953,-0.8818359375,0.5502929688,-0.28515625
0.46,1,0,0,9.76355437060752,-0.171035781112735,0.9265560425295021,9.797073193359376,0.0780360103597984,-0.0686462507206553,9.102754712404396,0.125620768376243,3.57693728076377,-5.3671875,0.166015625,0.001784324646,-0.9873046875,-0.1318359375,-0.04940795898,-0.7524414063,0.51953125,-0.3315429688
0.465,1,0,0,9.76355437060752,-0.1626560752776715,0.9265560425295021,9.78749638671875,0.0745569360694725,-0.07261164722856345,9.117119921875,0.1147720420745465,3.567360474123145,-5.15625,-0.08630371094,-0.01652526855,-1.041992188,-0.02586364746,-0.07409667969,-0.6674804688,0.3977050781,-0.3996582031
0.47,1,0,0,9.758765966796876,-0.14499883802789001,0.955286462451377,9.80186159717002,0.044666824720757746,-0.0650175388369892,9.126696728515626,0.110282913980141,3.572148876953125,-4.74609375,0.1370849609,0.01337432861,-1.034179688,0.02876281738,-0.1820068359,-0.6743164063,0.2966308594,-0.58984375
0.475,1,0,0,9.753977563966895,-0.140060797094624,0.951096609484812,9.80186159717002,0.03355623264052255,-0.0704044925698891,9.126696728515626,0.109759182383837,3.552995263671875,-4.453125,0.1700439453,-0.21484375,-1.350585938,-0.1900634766,-0.1695556641,-0.7744140625,0.4189453125,-0.5522460938
0.48,1,0,0,9.74918916015625,-0.1383399646927585,0.964264718640188,9.792284790529395,0.0500163690553226,-0.06902034473342575,9.136273535156251,0.09681552962827794,3.56496627172749,-4.3203125,0.2907714844,-0.001747131348,-1.471679688,-0.1390380859,-0.1960449219,-0.7216796875,0.5341796875,-0.4924316406
0.485,1,0,0,9.76355437060752,-0.13227964171137452,0.964264718640188,9.80665,0.05061491946791,-0.0780360103597984,9.150638745607521,0.10324994656359249,3.552995263671875,-4.0,0.08447265625,-0.2037353516,-1.796875,-0.2209472656,-0.2600097656,-0.8203125,0.4125976563,-0.3530273438
0.49,1,0,0,9.76355437060752,-0.12389993587631101,0.9678560211549391,9.80665,0.03787701844732365,-0.06456862601774199,9.145850341796875,0.10369885940245299,3.567360474123145,-3.625,0.16796875,-0.1951904297,-1.83203125,-0.2291259766,-0.3530273438,-0.8432617188,0.4270019531,-0.4523925781
0.495,1,0,0,9.76355437060752,-0.1328781921631885,0.9876081846918701,9.80665,0.0557400074026579,-0.0731353788346741,9.126696728515626,0.09277531433350635,3.5697546755381353,-3.4609375,0.2327880859,-0.1799316406,-1.701171875,-0.3872070313,-0.2495117188,-0.6508789063,0.2141113281,-0.3759765625
0.5,1,0,0,9.74440075732627,-0.1429039115446075,0.9786299286011255,9.80665,0.05087678527586865,-0.05820902785948425,9.117119921875,0.112452659220867,3.56496627172749,-3.388671875,0.009437561035,-0.1918945313,-1.963867188,-0.3686523438,-0.173828125,-0.8032226563,0.1756591797,-0.2834472656
0.505,1,0,0,9.739612353515625,-0.137965870709408,0.973841525280813,9.80665,0.06251110897202115,-0.0783352855660921,9.121908325685645,0.09681552962827794,3.5601778688975103,-3.65625,0.3918457031,-0.1520996094,-1.713867188,-0.4721679688,-0.2954101563,-1.0390625,0.03631591797,-0.3803710938
0.51,1,0,0,9.74918916015625,-0.15577274547407652,0.954687911999563,9.80665,0.07156418399672884,-0.07549217109649531,9.107543115234375,0.11282675320421749,3.5625720703125,-3.82421875,0.2878417969,-0.2357177734,-1.911132813,-0.4521484375,-0.3020019531,-1.016601563,0.2517089844,-0.1986083984
0.515,1,0,0,9.74440075732627,-0.135496850242775,0.9762357268919359,9.797073193359376,0.06296002178146169,-0.055515550993034304,9.121908325685645,0.1241243923447745,3.5506010622568853,-3.865234375,0.08660888672,-0.2185058594,-1.815429688,-0.7104492188,-0.2683105469,-1.001953125,0.1148071289,-0.1442871094
0.52,1,0,0,9.753977563966895,-0.158466222409173,0.98222123101781,9.792284790529395,0.06860884132232024,-0.04795885200960175,9.13148513232627,0.11701660617078251,3.55778366748252,-3.7578125,-0.1558837891,0.0451965332,-1.814453125,-0.7563476563,-0.2761230469,-1.138671875,0.1275634766,-0.3803710938
0.525,1,0,0,9.74440075732627,-0.1848024406218585,0.970848773217876,9.797073193359376,0.08155249404845935,-0.06868366012879701,9.141061938966896,0.118812257428158,3.572148876953125,-3.578125,0.01696777344,0.02861022949,-1.802734375,-0.7026367188,-0.1607666016,-0.9790039063,0.2198486328,-0.427734375
0.53,1,0,0,9.753977563966895,-0.17672201001270202,0.9564835632569385,9.82580361328125,0.06636427726531084,-0.0560392826089516,9.150638745607521,0.104222590998757,3.58411988500874,-3.291015625,-0.2514648438,-0.1804199219,-1.768554688,-0.373046875,-0.03717041016,-1.046875,0.1502685547,-0.4802246094
0.535,1,0,0,9.753977563966895,-0.1812111381071075,0.9277531433350635,9.81622681154395,0.0802805744168078,-0.05188683909956155,9.121908325685645,0.10788871227095151,3.5625720703125,-3.23828125,-0.07861328125,0.03182983398,-1.610351563,-0.3703613281,-0.009185791016,-1.083984375,0.0500793457,-0.5786132813
0.54,1,0,0,9.758765966796876,-0.1834557022033435,0.9439140045533765,9.835380424825201,0.0642693508114483,-0.05701192703430945,9.126696728515626,0.1093102695449765,3.5889082888193853,-2.88671875,-0.1369628906,-0.1026611328,-1.233398438,-0.2653808594,-0.1573486328,-0.9560546875,0.08197021484,-0.4731445313
0.545,1,0,0,9.74440075732627,-0.1749263587553265,0.9433154541015625,9.81622681154395,0.0777367351535047,-0.0743698890679906,9.141061938966896,0.1253963119077795,3.5889082888193853,-2.826171875,-0.03421020508,-0.01197052002,-1.21875,-0.3793945313,-0.05029296875,-1.0078125,0.004264831543,-0.609375
0.55,1,0,0,9.74918916015625,-0.163404263342439,0.9504980591310646,9.82580361328125,0.05413140315657095,-0.053383215140836694,9.13148513232627,0.11297639081717101,3.58411988500874,-2.826171875,-0.08929443359,-0.1494140625,-1.055664063,-0.4606933594,-0.09844970703,-1.090820313,-0.1100463867,-0.486328125
0.555,1,0,0,9.76355437060752,-0.1635539009553925,0.9528922607421875,9.81622681154395,0.06007949791352985,-0.0323217224170127,9.121908325685645,0.1096095447708835,3.55778366748252,-2.8125,-0.03652954102,-0.2878417969,-1.1875,-0.4865722656,-0.2172851563,-1.061523438,0.01977539063,-0.525390625
0.56,1,0,0,9.74918916015625,-0.13676876980577998,0.9696516724123145,9.80186159717002,0.07811082916627515,-0.060154316710199954,9.117119921875,0.09135375709870795,3.552995263671875,-3.03515625,0.01583862305,-0.1135253906,-1.625,-0.4860839844,-0.4458007813,-1.137695313,0.06604003906,-0.4562988281
0.565,1,0,0,9.74918916015625,-0.12322656666705349,0.970848773217876,9.78749638671875,0.07403320446336185,-0.10512041667647799,9.088389501953126,0.1057937858857355,3.58411988500874,-3.17578125,-0.2275390625,-0.2180175781,-1.595703125,-0.4008789063,-0.4455566406,-0.89453125,0.01267242432,-0.5869140625
0.57,1,0,0,9.72524714404502,-0.127266782020665,0.9762357268919359,9.78270798388877,0.07582885570112405,-0.1045966849821075,9.09796630859375,0.09614216041902045,3.5889082888193853,-3.3828125,-0.1513671875,-0.02905273438,-1.600585938,-0.3010253906,-0.4228515625,-0.7182617188,0.08148193359,-0.6655273438
0.575,1,0,0,9.730035546875,-0.14245499880381352,0.981622681154395,9.773131177248146,0.0561141014056217,-0.0631844781910853,9.083601099123145,0.088660280232258,3.5625720703125,-3.080078125,-0.07946777344,-0.25,-1.46875,-0.4370117188,-0.3420410156,-0.5712890625,-0.2624511719,-0.740234375
0.58,1,0,0,9.758765966796876,-0.1574187591184985,0.992396588502515,9.76355437060752,0.0494178186427352,-0.0588823970785484,9.07402429248252,0.0756792180979772,3.555389465086865,-3.03125,-0.1088256836,-0.1884765625,-1.120117188,-0.5849609375,-0.3522949219,-0.7709960938,-0.06311035156,-0.548828125
0.585,1,0,0,9.74918916015625,-0.1544260070555615,1.002571945006555,9.758765966796876,0.059406128694465696,-0.0769137283312937,9.09317790576377,0.08215104446104675,3.55778366748252,-3.16015625,-0.2973632813,-0.2785644531,-0.8349609375,-0.4282226563,-0.3278808594,-1.015625,-0.04010009766,-0.4033203125
0.59,1,0,0,9.7683427734375,-0.160860424020296,0.994192239073425,9.777919580078125,0.04679916057295535,-0.061014732930745996,9.11233151904502,0.0788590171820094,3.55778366748252,-3.314453125,-0.5639648438,-0.3447265625,-0.4067382813,-0.3056640625,-0.1998291016,-1.044921875,-0.05548095703,-0.3950195313
0.595,1,0,0,9.7683427734375,-0.18225860139778202,0.98820673553595,9.797073193359376,0.0771381847409173,-0.03976619319563345,9.141061938966896,0.08634089736877186,3.574543078368115,-3.298828125,-0.5415039063,-0.4057617188,-0.5190429688,-0.3759765625,-0.2034912109,-0.6650390625,-0.02294921875,-0.3588867188
0.6,1,0,0,9.753977563966895,-0.19737199932542052,1.00975455023219,9.82580361328125,0.0814028564453125,-0.07335983524429769,9.174580761718751,0.09479542198089215,3.574543078368115,-2.91015625,-0.2115478516,-0.5,-0.7075195313,-0.2349853516,-0.392578125,-0.4807128906,-0.1689453125,-0.595703125
0.605,1,0,0,9.74918916015625,-0.2036567786772015,1.005564697265625,9.82580361328125,0.09516951599366259,-0.0777367351535047,9.198522778810645,0.1030254901931955,3.5697546755381353,-2.3203125,-0.4104003906,-0.4562988281,-1.268554688,-0.28125,-0.2274169922,-0.662109375,-0.3537597656,-0.6547851563
0.61,1,0,0,9.74918916015625,-0.165050276986861,0.9726444244752516,9.8449572265625,0.08289923248658765,-0.08155249404845935,9.184157568359375,0.12928688964843751,3.552995263671875,-2.400390625,-0.6806640625,-0.2995605469,-1.430664063,-0.3449707031,-0.4323730469,-0.853515625,-0.279296875,-0.7919921875
0.615,1,0,0,9.720458740234376,-0.1457470260926575,0.9469067566163135,9.835380424825201,0.09419687156830475,-0.07358429164411465,9.1554271484375,0.1413327167556955,3.574543078368115,-2.517578125,-0.4953613281,-0.1804199219,-1.803710938,-0.3273925781,-0.2227783203,-1.05078125,-0.3498535156,-0.8818359375
0.62,1,0,0,9.74918916015625,-0.1623568000517645,0.973242974828999,9.82580361328125,0.10265139620984501,-0.08693944778135924,9.117119921875,0.1599625984406415,3.58411988500874,-2.94140625,-0.4089355469,-0.1533203125,-2.119140625,-0.3181152344,-0.599609375,-1.174804688,-0.1505126953,-0.7607421875
0.625,1,0,0,9.753977563966895,-0.1486649593000845,0.9660603698975635,9.81622681154395,0.09120411949556109,-0.06920739173490766,9.09796630859375,0.1500865165741095,3.58172568359375,-3.12109375,-0.5419921875,-0.04525756836,-2.068359375,-0.5693359375,-0.3608398438,-0.83984375,-0.103515625,-0.8310546875
0.63,1,0,0,9.758765966796876,-0.1361702194520325,0.9762357268919359,9.792284790529395,0.0867149913815423,-0.03969137439896335,9.0788126953125,0.12382511711886751,3.591302490234375,-3.533203125,-0.6962890625,-0.0530090332,-1.774414063,-0.6337890625,-0.4353027344,-0.5336914063,-0.1486816406,-0.9389648438
0.635,1,0,0,9.74918916015625,-0.1616086120850635,0.9762357268919359,9.78749638671875,0.0775122787438811,-0.03473462877143315,9.069235888671875,0.127491238391062,3.57693728076377,-3.583984375,-0.7265625,0.02354431152,-1.361328125,-0.56640625,-0.4829101563,-0.4890136719,-0.06909179688,-0.5200195313
0.64,1,0,0,9.74918916015625,-0.158466222409173,0.9774328277955641,9.777919580078125,0.07145195579191706,-0.04893149642515295,9.0788126953125,0.127266782020665,3.5793314821787603,-3.51171875,-0.6323242188,0.06076049805,-1.038085938,-0.4233398438,-0.4267578125,-0.4118652344,-0.1682128906,-0.5200195313
0.645,1,0,0,9.74918916015625,-0.17058686827387448,0.9762357268919359,9.78749638671875,0.0612391893403696,-0.061388826943516446,9.088389501953126,0.1016787517746805,3.5697546755381353,-3.466796875,-0.4775390625,-0.03289794922,-0.6123046875,-0.5,-0.3291015625,-0.3806152344,-0.2663574219,-0.3518066406
0.65,1,0,0,9.734823950685646,-0.158466222409173,0.963666168188374,9.78270798388877,0.046836569981097045,-0.06711246529085176,9.117119921875,0.08544307174989076,3.572148876953125,-3.451171875,-0.6103515625,-0.1303710938,-0.4206542969,-0.3591308594,-0.2155761719,-0.4870605469,-0.3286132813,-0.4191894531
0.655,1,0,0,9.74440075732627,-0.1930325088439685,0.98820673553595,9.80665,0.06393266620681956,-0.06393266620681956,9.126696728515626,0.08738836060060645,3.58411988500874,-3.328125,-0.5703125,-0.1915283203,-0.6000976563,-0.4919433594,-0.2293701172,-0.6318359375,-0.2915039063,-0.4797363281
0.66,1,0,0,9.758765966796876,-0.16879121701649902,0.9876081846918701,9.80186159717002,0.03520224628494455,-0.0820014068578999,9.145850341796875,0.0864157161752486,3.591302490234375,-2.96875,-0.6025390625,-0.1354980469,-0.48828125,-0.4594726563,-0.1643066406,-0.8383789063,-0.2927246094,-0.5625
0.665,1,0,0,9.74918916015625,-0.1702875930479675,0.9846154324328,9.80665,0.036754736418818955,-0.06868366012879701,9.1554271484375,0.086191259765625,3.59609089404502,-2.576171875,-0.2878417969,-0.2141113281,-0.5356445313,-0.3759765625,-0.1813964844,-0.8374023438,-0.3771972656,-0.630859375
0.67,1,0,0,9.74440075732627,-0.1602618736665485,0.9582792145143141,9.80665,0.045415012736492,-0.05233575191880875,9.150638745607521,0.06812251911454466,3.60327349828999,-2.20703125,-0.6611328125,-0.2147216797,-0.6694335938,-0.4089355469,-0.28515625,-0.90625,-0.4006347656,-0.6303710938
0.675,1,0,0,9.76355437060752,-0.146420395301915,0.9498995086792505,9.81622681154395,0.01943418378347285,-0.036866964623630746,9.141061938966896,0.10714052430425049,3.612850304930615,-2.296875,-0.7607421875,-0.007404327393,-0.6674804688,-0.3557128906,-0.361328125,-0.6381835938,-0.4602050781,-0.5625
0.68,1,0,0,9.734823950685646,-0.158915135149967,0.9786299286011255,9.82580361328125,0.021996727750846802,-0.04855740242218915,9.121908325685645,0.1074397995301575,3.593696691649365,-2.1796875,-0.7905273438,-0.09057617188,-0.603515625,-0.4387207031,-0.1600341797,-0.5991210938,-0.6889648438,-0.5004882813
0.685,1,0,0,9.74918916015625,-0.156520933538844,0.973841525280813,9.81622681154395,0.0346411052706922,-0.03383680315255205,9.09796630859375,0.10122983893582,3.58411988500874,-2.1640625,-0.9213867188,-0.04299926758,-0.6801757813,-0.501953125,-0.3151855469,-0.6059570313,-0.7421875,-0.4008789063
0.69,1,0,0,9.74440075732627,-0.1490390533815015,0.98222123101781,9.80665,0.0444423683209408,-0.030731822874996602,9.083601099123145,0.104521866224664,3.591302490234375,-2.107421875,-0.6259765625,-0.04663085938,-0.5634765625,-0.5,-0.3798828125,-0.6538085938,-0.52734375,-0.302734375
0.695,1,0,0,9.76355437060752,-0.138115508224295,0.979827029406687,9.82580361328125,0.05566518859618115,-0.03755903854676575,9.088389501953126,0.0842459709149093,3.593696691649365,-1.993164063,-0.666015625,-0.244140625,-0.5405273438,-0.5532226563,-0.3566894531,-0.73046875,-0.4130859375,-0.2419433594
0.7,1,0,0,9.758765966796876,-0.17043723066092098,0.9906009369509401,9.80665,0.046537294764996705,-0.05323357753768985,9.09317790576377,0.09763853645048895,3.62003291015625,-1.911132813,-0.5249023438,-0.2149658203,-0.6796875,-0.486328125,-0.3767089844,-0.822265625,-0.3288574219,-0.2342529297
0.705,1,0,0,9.74918916015625,-0.166397015405376,0.995987890625,9.797073193359376,0.051587563893267845,-0.055964463802474856,9.09796630859375,0.08933364944151549,3.605667700685645,-1.740234375,-0.9677734375,0.08251953125,-0.7895507813,-0.4421386719,-0.2885742188,-0.607421875,-0.580078125,-0.1958007813
0.71,1,0,0,9.753977563966895,-0.181959326171875,0.9906009369509401,9.773131177248146,0.05914426288650705,-0.04709843577924905,9.09317790576377,0.08993219986390956,3.612850304930615,-1.630859375,-0.6967773438,-0.09637451172,-1.083984375,-0.576171875,-0.2983398438,-0.3405761719,-0.5415039063,-0.3193359375
0.715,1,0,0,9.7683427734375,-0.1897404815551245,0.970250222766062,9.78749638671875,0.0746691642742843,-0.024372224716738854,9.083601099123145,0.0960673416125437,3.60327349828999,-1.494140625,-0.6162109375,0.05642700195,-1.295898438,-0.6025390625,-0.1215209961,-0.2330322266,-0.662109375,-0.2125244141
0.72,1,0,0,9.74440075732627,-0.1913864951995465,0.9588777648680615,9.797073193359376,0.07818564796294525,-0.033238252739964655,9.09796630859375,0.09501987839051575,3.59609089404502,-1.522460938,-0.7626953125,0.1118774414,-1.510742188,-0.6977539063,-0.2509765625,-0.07366943359,-0.525390625,-0.3515625
0.725,1,0,0,9.739612353515625,-0.20066402661426452,0.984016882569385,9.80665,0.09906009369509401,-0.049081134038106454,9.11233151904502,0.0885106426193045,3.586514087404395,-1.361328125,-0.697265625,0.1882324219,-1.328125,-0.763671875,-0.1456298828,-0.1345214844,-0.5415039063,-0.4428710938
0.73,1,0,0,9.753977563966895,-0.2099415580289825,0.9846154324328,9.80186159717002,0.0725368284220867,-0.0458639255557392,9.09317790576377,0.1007809260969595,3.605667700685645,-1.106445313,-0.8090820313,0.16015625,-1.184570313,-0.5249023438,-0.3088378906,-0.1187744141,-0.6254882813,-0.4426269531
0.735,1,0,0,9.74440075732627,-0.18225860139778202,0.979827029406687,9.80665,0.08768763580690014,-0.0528594835249194,9.117119921875,0.102875852580242,3.5984850954600103,-0.6728515625,-0.6557617188,0.1453857422,-0.9150390625,-0.5439453125,-0.3610839844,-0.05850219727,-0.50390625,-0.6264648438
0.74,1,0,0,9.758765966796876,-0.17612345965895448,0.984016882569385,9.80186159717002,0.0817021316516062,-0.050353053669758,9.117119921875,0.08678981017821241,3.58411988500874,-0.6411132813,-0.7348632813,-0.05972290039,-0.759765625,-0.5034179688,-0.486328125,-0.3781738281,-0.5913085938,-0.8154296875
0.745,1,0,0,9.758765966796876,-0.20949264528818848,0.9876081846918701,9.797073193359376,0.09157821349852491,-0.0580967996644791,9.11233151904502,0.1069160679338535,3.5984850954600103,-0.5502929688,-0.6787109375,0.02403259277,-0.4501953125,-0.5288085938,-0.3308105469,-0.2028808594,-0.595703125,-0.5415039063
0.75,1,0,0,9.734823950685646,-0.18405425265515749,0.98820673553595,9.80186159717002,0.08873509902892811,-0.0371101257373252,9.117119921875,0.1164180557189685,3.605667700685645,-0.5561523438,-0.4558105469,-0.0859375,-0.2291259766,-0.5327148438,-0.3237304688,-0.3549804688,-0.650390625,-0.6088867188
0.755,1,0,0,9.734823950685646,-0.1907879447477325,0.981622681154395,9.80186159717002,0.08432078972138606,-0.0348094475779099,9.126696728515626,0.126743050424361,3.5984850954600103,-0.34375,-0.6596679688,0.02505493164,-0.3354492188,-0.5415039063,-0.3427734375,-0.1638183594,-0.7319335938,-0.3193359375
0.76,1,0,0,9.734823950685646,-0.1771709228515625,0.979827029406687,9.797073193359376,0.0775122787438811,-0.0528968929330611,9.11233151904502,0.1069160679338535,3.600879296875,-0.1378173828,-0.9750976563,-0.1076049805,-0.2106933594,-0.6928710938,-0.2924804688,-0.1175537109,-0.8017578125,-0.4794921875
0.765,1,0,0,9.739612353515625,-0.181959326171875,0.989403836243445,9.80665,0.08364742050232189,-0.050353053669758,9.121908325685645,0.1149216796875,3.612850304930615,-0.004726409912,-0.7563476563,-0.09460449219,-0.07720947266,-0.6767578125,-0.41015625,-0.1873779297,-0.611328125,-0.564453125
0.77,1,0,0,9.753977563966895,-0.1837549774292505,1.004966146421545,9.792284790529395,0.08469488372434986,-0.03574468259512605,9.107543115234375,0.109160631932023,3.60327349828999,0.07513427734,-0.8857421875,-0.02349853516,0.006526947021,-1.094726563,-0.3232421875,-0.2692871094,-0.9018554688,-0.4631347656
0.775,1,0,0,9.76355437060752,-0.18450316539595152,0.9947907899175049,9.80186159717002,0.0565256048167272,-0.04866963062700095,9.117119921875,0.1137245788819385,3.60327349828999,0.3681640625,-0.9174804688,0.1774902344,0.1583251953,-1.0546875,-0.5786132813,-0.08703613281,-0.8090820313,-0.4721679688
0.78,1,0,0,9.758765966796876,-0.178368023657124,0.981622681154395,9.81622681154395,0.05865794067873145,-0.0472480733823959,9.126696728515626,0.11222820285047001,3.58411988500874,0.5029296875,-0.4836425781,0.03485107422,0.1988525391,-0.87890625,-0.5463867188,-0.04156494141,-0.7490234375,-0.6098632813
0.785,1,0,0,9.758765966796876,-0.1744774460145325,0.974440075732627,9.81622681154395,0.06157587394499835,-0.0551414569900705,9.121908325685645,0.1166425120893655,3.600879296875,0.3393554688,-0.6796875,0.02880859375,0.4152832031,-0.7827148438,-0.4633789063,-0.2088623047,-0.8251953125,-0.5249023438
0.79,1,0,0,9.74918916015625,-0.171035781112735,0.983418331725305,9.80665,0.0704793113665592,-0.04365677089706485,9.11233151904502,0.1207575462004205,3.610456103515625,0.533203125,-0.8002929688,0.02386474609,0.5092773438,-0.6977539063,-0.61328125,-0.1629638672,-0.8461914063,-0.2727050781
0.795,1,0,0,9.74440075732627,-0.17522563398123348,0.964264718640188,9.80665,0.0415618444432023,-0.0266167887639416,9.102754712404396,0.1175403377670865,3.600879296875,0.7924804688,-0.7348632813,-0.006103515625,0.5244140625,-0.9345703125,-0.666015625,-0.1695556641,-0.9926757813,-0.4167480469
0.8,1,0,0,9.753977563966895,-0.15292963102409302,0.964863269092002,9.80186159717002,0.042384851265413304,-0.0265419699672715,9.11233151904502,0.12098200266888401,3.61524450732627,0.890625,-0.6713867188,0.001247406006,0.4592285156,-0.8666992188,-0.5766601563,-0.2307128906,-0.9765625,-0.2944335938
0.805,1,0,0,9.758765966796876,-0.158466222409173,0.9588777648680615,9.797073193359376,0.046649522969808496,-0.0606406389277822,9.121908325685645,0.117989250605947,3.5984850954600103,0.8681640625,-0.7119140625,-0.1207275391,0.4201660156,-0.8974609375,-0.5400390625,-0.04730224609,-1.03125,-0.5092773438
0.81,1,0,0,9.753977563966895,-0.140060797094624,0.955286462451377,9.773131177248146,0.06187514915129205,-0.0441056837065054,9.11233151904502,0.1183633445892975,3.600879296875,0.7250976563,-0.7905273438,-0.005764007568,0.2270507813,-0.96875,-0.4006347656,-0.1618652344,-1.0,-0.4475097656
0.815,1,0,0,9.74918916015625,-0.1438017372223285,0.967257470703125,9.80186159717002,0.07369651984892646,-0.05963058509428265,9.102754712404396,0.1111807395597955,3.593696691649365,0.6870117188,-0.5043945313,-0.03265380859,0.162109375,-0.6801757813,-0.509765625,-0.04827880859,-0.8862304688,-0.5249023438
0.82,1,0,0,9.773131177248146,-0.131830728872514,0.9714473235716234,9.78749638671875,0.0811035812390188,-0.05719897403579135,9.09796630859375,0.13437456819465698,3.586514087404395,0.4443359375,-0.5537109375,0.1119995117,0.08905029297,-0.7338867188,-0.3210449219,-0.0179901123,-0.8540039063,-0.3271484375
0.825,1,0,0,9.76355437060752,-0.1419312672075095,0.9678560211549391,9.78749638671875,0.09060556907316705,-0.08574234695618445,9.09317790576377,0.13504793740391452,3.591302490234375,0.1073608398,-0.6064453125,0.01155853271,-0.02789306641,-0.7900390625,-0.455078125,-0.09454345703,-0.8076171875,-0.2504882813
0.83,1,0,0,9.758765966796876,-0.12696750679475802,0.9726444244752516,9.80665,0.09674071083160786,-0.07399579505522015,9.102754712404396,0.130858084535416,3.591302490234375,-0.09149169922,-0.6083984375,0.102355957,-0.01620483398,-0.7280273438,-0.3854980469,-0.08630371094,-0.90625,-0.1508789063
0.835,1,0,0,9.753977563966895,-0.143951374835282,0.9684545715086865,9.797073193359376,0.09404723396515789,-0.0667383712780813,9.121908325685645,0.09539397239347955,3.58411988500874,-0.0368347168,-0.3381347656,-0.008178710938,-0.102722168,-0.8369140625,-0.4650878906,0.09606933594,-0.814453125,-0.2286376953
0.84,1,0,0,9.76355437060752,-0.146869308042709,0.979827029406687,9.792284790529395,0.07657704372666495,-0.04425532130965225,9.09796630859375,0.0948702407873689,3.5889082888193853,-0.1517333984,-0.6557617188,0.1022949219,0.02122497559,-0.9038085938,-0.4685058594,0.005546569824,-0.9379882813,-0.3723144531
0.845,1,0,0,9.773131177248146,-0.1563712959258905,0.9786299286011255,9.792284790529395,0.08649053497191869,-0.04526537513334515,9.126696728515626,0.08289923248658765,3.57693728076377,-0.2507324219,-0.671875,0.1325683594,-0.05877685547,-0.84375,-0.39453125,0.1427001953,-0.9375,-0.3962402344
0.85,1,0,0,9.74918916015625,-0.146345576446405,0.986411083984375,9.80665,0.084545246121203,-0.0569745176359744,9.121908325685645,0.07870937957886255,3.58172568359375,-0.1488037109,-0.4548339844,0.06137084961,0.1810302734,-0.9624023438,-0.4020996094,0.1270751953,-0.853515625,-0.3815917969
0.855,1,0,0,9.739612353515625,-0.15831658479621952,0.98222123101781,9.81622681154395,0.08551789054656085,-0.05712415523912125,9.13148513232627,0.09285013313017644,3.586514087404395,-0.06622314453,-0.3842773438,0.007228851318,0.27734375,-0.8994140625,-0.3608398438,0.1131591797,-1.060546875,-0.3876953125
0.86,1,0,0,9.739612353515625,-0.1675941162109375,0.9846154324328,9.80665,0.0828244136801109,-0.0712274993921001,9.141061938966896,0.09995791927474851,3.58172568359375,-0.07330322266,-0.4072265625,0.0458984375,0.3896484375,-0.966796875,-0.4794921875,0.166015625,-0.9897460938,-0.1898193359
0.865,1,0,0,9.74440075732627,-0.1629553505035785,0.9786299286011255,9.80665,0.0701800361602655,-0.07399579505522015,9.126696728515626,0.11806406936339049,3.58172568359375,-0.04669189453,-0.578125,-0.01282501221,0.1829833984,-0.7631835938,-0.3715820313,0.3334960938,-0.9487304688,0.04577636719
0.87,1,0,0,9.74918916015625,-0.15831658479621952,0.98281978186189,9.80665,0.0646808542225538,-0.0436941802953999,9.11233151904502,0.116268418106015,3.58172568359375,-0.5122070313,-0.330078125,-0.02621459961,0.1077880859,-1.154296875,-0.3430175781,0.2807617188,-1.057617188,-0.09814453125
0.875,1,0,0,9.758765966796876,-0.153528181475907,0.967257470703125,9.80665,0.0750058488887197,-0.03987842140044525,9.121908325685645,0.12689268803731452,3.586514087404395,-0.4162597656,-0.4982910156,0.076171875,0.03598022461,-1.026367188,-0.3454589844,0.4272460938,-1.247070313,-0.05966186523
0.88,1,0,0,9.7683427734375,-0.16953940508126653,0.9858125331402949,9.797073193359376,0.0753051240950134,-0.04414309310484045,9.107543115234375,0.1531540874925565,3.586514087404395,-0.1705322266,-0.517578125,0.03939819336,0.06329345703,-1.001953125,-0.2761230469,0.3510742188,-1.263671875,-0.1128540039
0.885,1,0,0,9.74918916015625,-0.1659481025665155,0.983418331725305,9.80665,0.09232640152406581,-0.0512508792886391,9.102754712404396,0.148365684172244,3.572148876953125,-0.1231079102,-0.5864257813,-0.005783081055,-0.03973388672,-0.9194335938,-0.4709472656,0.1984863281,-1.264648438,-0.09674072266
0.89,1,0,0,9.758765966796876,-0.15921441037587403,0.9792284790529395,9.80665,0.0833481452960282,-0.05252279892029065,9.11233151904502,0.154874919894422,3.57693728076377,-0.06988525391,-0.5620117188,0.001890182495,-0.02491760254,-0.8583984375,-0.2404785156,0.03662109375,-1.03515625,-0.005481719971
0.895,1,0,0,9.7683427734375,-0.154575644668515,0.974440075732627,9.80665,0.0709282241858064,-0.0526724365234375,9.11233151904502,0.147542677350033,3.57693728076377,-0.1925048828,-0.6059570313,-0.1737060547,0.2410888672,-0.8466796875,-0.4533691406,-0.1165771484,-0.943359375,0.09411621094
0.9,1,0,0,9.7683427734375,-0.140360072320531,0.9762357268919359,9.80665,0.0882113674130108,-0.0474725297920195,9.136273535156251,0.1175403377670865,3.58172568359375,-0.4858398438,-0.4846191406,-0.01634216309,0.4721679688,-0.8813476563,-0.2393798828,-0.07104492188,-0.912109375,0.1165771484
0.905,1,0,0,9.773131177248146,-0.1586158600221265,0.9750386260863745,9.81622681154395,0.09240122032073589,-0.05151274509659775,9.126696728515626,0.1148468609300565,3.567360474123145,-0.6171875,-0.4406738281,-0.04821777344,0.6147460938,-0.9018554688,-0.1351318359,-0.2224121094,-1.073242188,0.06500244141
0.91,1,0,0,9.777919580078125,-0.15786767195735898,0.9678560211549391,9.81622681154395,0.07900865478515626,-0.07983166160736725,9.141061938966896,0.116567693331922,3.572148876953125,-0.490234375,-0.615234375,0.07720947266,0.685546875,-0.9384765625,-0.1713867188,0.1671142578,-1.186523438,0.1169433594
0.915,1,0,0,9.777919580078125,-0.187495917556955,0.9792284790529395,9.797073193359376,0.08746317939727656,-0.06565349864791165,9.150638745607521,0.115146136057897,3.574543078368115,-0.3957519531,-0.4060058594,-0.06298828125,0.6982421875,-0.9223632813,-0.1336669922,0.1201171875,-0.9653320313,0.1005859375
0.92,1,0,0,9.753977563966895,-0.17522563398123348,0.988805285399365,9.80665,0.06400748500348964,-0.05110124168549225,9.150638745607521,0.12913725203548398,3.574543078368115,-0.1557617188,-0.5180664063,-0.08337402344,0.3725585938,-0.888671875,0.001239776611,0.04376220703,-0.9721679688,0.1545410156
0.925,1,0,0,9.76355437060752,-0.18405425265515749,0.99299513836593,9.80665,0.07208791561264616,-0.0676736063051041,9.1554271484375,0.1230769290541,3.574543078368115,-0.1029663086,-0.4956054688,-0.1827392578,0.4848632813,-0.7661132813,0.01364135742,0.1043701172,-0.9125976563,-0.006519317627
0.93,1,0,0,9.74918916015625,-0.160411511279502,1.00197339514314,9.80665,0.0600046791070531,-0.06625204906049906,9.145850341796875,0.1191863514115085,3.5625720703125,-0.2117919922,-0.4030761719,-0.06210327148,0.4797363281,-0.8115234375,-0.03240966797,-0.04806518555,-0.9125976563,-0.005764007568
0.935,1,0,0,9.76355437060752,-0.15921441037587403,0.99658644146908,9.80665,0.0718260498046875,-0.05914426288650705,9.13148513232627,0.119560445394859,3.5601778688975103,-0.275390625,-0.6606445313,-0.166015625,0.7299804688,-0.8774414063,-0.1771240234,-0.1854248047,-0.90625,-0.06616210938
0.94,1,0,0,9.753977563966895,-0.17597382204600098,1.004966146421545,9.80186159717002,0.06587795505753526,-0.061912558559433756,9.117119921875,0.12105682142632751,3.5625720703125,-0.1000366211,-0.6186523438,-0.08911132813,0.9194335938,-1.133789063,-0.1558837891,-0.04019165039,-0.9736328125,0.04800415039
0.945,1,0,0,9.734823950685646,-0.175375271594187,0.9786299286011255,9.80665,0.0817021316516062,-0.07657704372666495,9.117119921875,0.1315314537446735,3.574543078368115,-0.1915283203,-0.6030273438,0.04797363281,0.9916992188,-0.7348632813,-0.1076660156,-0.0485534668,-0.8588867188,0.001938819885
0.95,1,0,0,9.74918916015625,-0.173729257949765,0.98281978186189,9.81622681154395,0.0671498746891868,-0.05783493385652045,9.107543115234375,0.0952443347903327,3.56496627172749,-0.2095947266,-0.50390625,-0.06051635742,0.9399414063,-0.98046875,0.02813720703,0.1645507813,-0.8037109375,0.1301269531
0.955,1,0,0,9.74918916015625,-0.16415245130914,0.983418331725305,9.797073193359376,0.08364742050232189,-0.0554407321963642,9.09796630859375,0.10512041667647799,3.56496627172749,-0.1677246094,-0.6489257813,0.0258026123,0.9497070313,-0.7509765625,-0.2082519531,0.3786621094,-0.8876953125,0.0378112793
0.96,1,0,0,9.758765966796876,-0.16953940508126653,0.9750386260863745,9.78270798388877,0.088660280232258,-0.0827495948834408,9.102754712404396,0.123675479505914,3.567360474123145,-0.1401367188,-0.509765625,0.001029014587,0.7534179688,-0.8002929688,0.007225036621,0.3483886719,-0.8642578125,0.06072998047
0.965,1,0,0,9.74440075732627,-0.16714520337207703,0.974440075732627,9.80665,0.07309796943633905,-0.09240122032073589,9.121908325685645,0.11596914288010801,3.56496627172749,-0.03265380859,-0.4909667969,0.1313476563,0.9301757813,-0.7817382813,-0.05615234375,0.3327636719,-0.8491210938,0.1139526367
0.97,1,0,0,9.753977563966895,-0.1599625984406415,0.973841525280813,9.797073193359376,0.09614216041902045,-0.0800561180071842,9.141061938966896,0.1155950488967575,3.552995263671875,-0.1052246094,-0.3537597656,0.01435852051,0.9692382813,-0.6352539063,0.04412841797,0.2565917969,-0.8872070313,0.2445068359
0.975,1,0,0,9.753977563966895,-0.1626560752776715,0.970250222766062,9.82580361328125,0.07178864040635245,-0.0627729747799798,9.1554271484375,0.1090109943190695,3.533841650390625,-0.2810058594,-0.388671875,-0.07806396484,1.008789063,-0.634765625,-0.0001695156097,0.3640136719,-0.947265625,0.1986083984
0.98,1,0,0,9.753977563966895,-0.1933317840698755,0.979827029406687,9.81622681154395,0.09053075027649694,-0.07287351302671545,9.145850341796875,0.1057937858857355,3.5314474489756353,0.1428222656,-0.1405029297,0.04330444336,0.9731445313,-0.7353515625,0.006607055664,0.2651367188,-0.9716796875,0.115234375
0.985,1,0,0,9.76355437060752,-0.182557876623689,0.9947907899175049,9.82580361328125,0.07878419837553266,-0.08858546142578125,9.150638745607521,0.1109562831893985,3.53863005420127,0.09600830078,-0.4521484375,-0.0520324707,1.07421875,-0.7490234375,-0.04357910156,0.3400878906,-0.818359375,0.1596679688
0.99,1,0,0,9.74918916015625,-0.181660050945968,0.994192239073425,9.82580361328125,0.09629179802216731,-0.06374561920533765,9.160215552248145,0.10781389351350801,3.54581265844624,0.05877685547,-0.1583251953,-0.01791381836,1.057617188,-0.4436035156,0.01724243164,0.5141601563,-0.6342773438,0.05078125
0.995,1,0,0,9.777919580078125,-0.18330606459038998,1.002571945006555,9.80665,0.08409633331176244,-0.07788637275665156,9.165003955078125,0.106990886691297,3.54581265844624,0.07165527344,-0.4150390625,-0.1212768555,1.024414063,-0.5053710938,-0.09094238281,0.3620605469,-0.6420898438,0.1737060547
1.0,1,0,0,9.76355437060752,-0.18151041333301451,0.991798037658435,9.80665,0.0756792180979772,-0.0793827487979267,9.1554271484375,0.11110592080235202,3.5506010622568853,0.3508300781,-0.2250976563,-0.1223144531,1.186523438,-0.4641113281,0.05917358398,0.4226074219,-0.6186523438,0.1502685547
1.005,1,0,0,9.753977563966895,-0.17417817078862552,0.992396588502515,9.81622681154395,0.0588075782818783,-0.0736591104505914,9.145850341796875,0.12434884871517149,3.5410242556162603,0.4931640625,-0.05145263672,-0.1013793945,1.342773438,-0.4616699219,-0.08862304688,0.4074707031,-0.6118164063,0.08160400391
1.01,1,0,0,9.74918916015625,-0.16400281369618652,0.9953893397809199,9.82580361328125,0.07249941902375165,-0.0808791248293952,9.150638745607521,0.118438163346741,3.52665904516499,0.529296875,-0.314453125,-0.1666259766,1.463867188,-0.4445800781,-0.03872680664,0.4382324219,-0.6508789063,-0.01762390137
1.015,1,0,0,9.758765966796876,-0.158466222409173,1.00197339514314,9.81622681154395,0.09270049552702961,-0.07908347359163301,9.150638745607521,0.1421557235779065,3.52665904516499,0.4526367188,-0.30859375,-0.1514892578,1.32421875,-0.3395996094,-0.05090332031,0.5815429688,-0.4506835938,0.07952880859
1.02,1,0,0,9.773131177248146,-0.1777694733033765,0.980425579858501,9.82580361328125,0.0797568428008905,-0.100406832113609,9.1554271484375,0.1375169578705475,3.533841650390625,0.4440917969,-0.2456054688,-0.02975463867,1.33984375,-0.2325439453,-0.1500244141,0.2692871094,-0.4521484375,0.02787780762
1.025,1,0,0,9.76355437060752,-0.172083244305343,0.98820673553595,9.82580361328125,0.09202712630796545,-0.0937479587588642,9.150638745607521,0.12696750679475802,3.517082238524365,0.6586914063,-0.2653808594,-0.05902099609,1.350585938,-0.09417724609,0.1333007813,0.1762695313,-0.2834472656,0.2028808594
1.03,1,0,0,9.758765966796876,-0.16071078640734252,0.9810241303103151,9.82580361328125,0.07968202400422039,-0.0814028564453125,9.145850341796875,0.106990886691297,3.533841650390625,0.513671875,-0.2829589844,-0.05978393555,1.106445313,-0.2585449219,0.002996444702,0.1002197266,-0.2995605469,0.07360839844
1.035,1,0,0,9.7683427734375,-0.1794154869477985,0.974440075732627,9.81622681154395,0.0890343742352218,-0.0912789382922312,9.145850341796875,0.13138181613172,3.5410242556162603,0.43359375,-0.1055297852,0.02163696289,1.021484375,-0.1760253906,-0.02278137207,0.1768798828,-0.3752441406,0.1729736328
1.04,1,0,0,9.7683427734375,-0.16714520337207703,0.9858125331402949,9.81622681154395,0.09120411949556109,-0.09367313995238745,9.150638745607521,0.1240495734892645,3.536235851805615,0.9306640625,-0.08386230469,-0.09796142578,1.029296875,-0.1688232422,-0.01438903809,0.2308349609,-0.451171875,0.2418212891
1.045,1,0,0,9.773131177248146,-0.16385317608323302,0.994192239073425,9.82580361328125,0.087837273410047,-0.10152911416172701,9.150638745607521,0.12382511711886751,3.52665904516499,0.8471679688,-0.1069335938,0.03186035156,0.9653320313,-0.05532836914,0.251953125,0.2314453125,-0.5341796875,0.3569335938
1.05,1,0,0,9.753977563966895,-0.167444478597984,0.9750386260863745,9.81622681154395,0.08491934013397345,-0.087837273410047,9.160215552248145,0.10938508830242,3.52665904516499,0.9482421875,0.1812744141,0.0592956543,0.791015625,0.0108795166,0.162109375,0.2385253906,-0.4729003906,0.3491210938
1.055,1,0,0,9.7683427734375,-0.1536778190888605,0.979827029406687,9.81622681154395,0.08910919304169855,-0.09240122032073589,9.165003955078125,0.105344873046875,3.5218706423350103,0.9506835938,-0.2517089844,0.07269287109,0.779296875,-0.02676391602,0.01529693604,0.3674316406,-0.3737792969,0.2408447266
1.06,1,0,0,9.7683427734375,-0.1520318054444385,0.9786299286011255,9.81622681154395,0.08462006492767975,-0.09344868355257051,9.16979235888877,0.116043961735618,3.5194764409200197,1.006835938,-0.08239746094,-0.08239746094,0.876953125,-0.06323242188,0.1177978516,0.298828125,-0.3439941406,0.1342773438
1.065,1,0,0,9.777919580078125,-0.1649006393739075,0.9762357268919359,9.82580361328125,0.0780360103597984,-0.07698854713777045,9.141061938966896,0.1137245788819385,3.5122938356943854,1.033203125,-0.1818847656,-0.04281616211,0.970703125,-0.2069091797,0.1590576172,0.17578125,-0.2143554688,0.1418457031
1.07,1,0,0,9.7683427734375,-0.1450736568834,0.9690531219605005,9.82580361328125,0.09666589202513111,-0.09075520667631391,9.136273535156251,0.1358709442261255,3.52665904516499,0.9306640625,-0.408203125,-0.07098388672,1.020507813,-0.08386230469,0.1761474609,0.1292724609,-0.1148681641,0.1949462891
1.075,1,0,0,9.7683427734375,-0.154575644668515,0.9786299286011255,9.81622681154395,0.07107786178895326,-0.09995791927474851,9.13148513232627,0.11731588139668951,3.52665904516499,1.009765625,-0.2214355469,-0.08843994141,1.025390625,-0.09246826172,0.04705810547,0.04626464844,-0.2377929688,0.1730957031
1.08,1,0,0,9.7683427734375,-0.1515080738481345,0.973841525280813,9.80665,0.07463175487594925,-0.0971148048443783,9.141061938966896,0.139013333902016,3.5410242556162603,0.9741210938,0.0569152832,-0.0539855957,1.216796875,-0.2573242188,0.1527099609,0.2822265625,-0.1903076172,0.2705078125
1.085,1,0,0,9.758765966796876,-0.1372176826446405,0.9684545715086865,9.835380424825201,0.0759036745076008,-0.08611644095914825,9.126696728515626,0.140584528690928,3.5290532475606446,0.87890625,-0.4946289063,-0.07751464844,1.026367188,-0.007873535156,0.2073974609,0.6108398438,-0.2266845703,0.3454589844
1.09,1,0,0,9.7683427734375,-0.15322890625,0.9600748657716895,9.80665,0.10377367815989649,-0.1000327381302585,9.1554271484375,0.115146136057897,3.5194764409200197,0.6962890625,-0.2178955078,0.01725769043,0.962890625,-0.1231689453,0.1130981445,0.4711914063,0.06240844727,0.2222900391
1.095,1,0,0,9.74440075732627,-0.1497872413482025,0.9678560211549391,9.81622681154395,0.0980874492599295,-0.1207575462004205,9.145850341796875,0.1183633445892975,3.5122938356943854,0.6079101563,-0.390625,-0.08038330078,0.9560546875,0.1516113281,0.09783935547,0.341796875,0.04742431641,0.3298339844
1.1,1,0,0,9.74440075732627,-0.136020581839079,0.9774328277955641,9.80665,0.094122052761828,-0.07841010437256885,9.16979235888877,0.1107318268190015,3.514688037109375,0.7001953125,-0.4050292969,-0.1256103516,0.90234375,0.1507568359,0.1420898438,0.3510742188,-0.1746826172,0.2854003906
1.105,1,0,0,9.78270798388877,-0.1494879661222955,0.9720458740234376,9.82580361328125,0.1019780270005875,-0.09195230751129536,9.188945972170021,0.1123778404634235,3.517082238524365,0.7153320313,-0.06518554688,-0.1837158203,0.9750976563,0.06774902344,0.05258178711,0.4797363281,-0.07434082031,0.322265625
1.11,1,0,0,9.773131177248146,-0.16819266666275148,0.973242974828999,9.835380424825201,0.0945709655810752,-0.09741408005067201,9.188945972170021,0.1057937858857355,3.514688037109375,1.173828125,-0.02770996094,-0.2580566406,1.047851563,0.2373046875,0.0241394043,0.4797363281,-0.0288848877,0.2685546875
1.115,1,0,0,9.773131177248146,-0.1613093368591565,0.9858125331402949,9.82580361328125,0.08626607857210175,-0.09756371765381884,9.16979235888877,0.110282913980141,3.50750543188374,1.459960938,-0.1225585938,-0.1636962891,1.094726563,0.1151733398,-0.1577148438,0.4340820313,-0.07531738281,0.1928710938
1.12,1,0,0,9.758765966796876,-0.16864157940354552,0.9714473235716234,9.835380424825201,0.0864157161752486,-0.120158995846673,9.165003955078125,0.09703998603790155,3.5218706423350103,1.510742188,-0.3305664063,-0.1529541016,1.044921875,0.2058105469,-0.06719970703,0.4868164063,0.02366638184,0.1079101563
1.125,1,0,0,9.74918916015625,-0.150834704638877,0.9564835632569385,9.835380424825201,0.0954687911999563,-0.1177647941374835,9.165003955078125,0.10556932941727201,3.50511123046875,1.45703125,-0.3234863281,-0.1533203125,0.8715820313,0.2873535156,0.02662658691,0.4709472656,0.1229858398,0.1148071289
1.13,1,0,0,9.734823950685646,-0.1224783787003525,0.9684545715086865,9.835380424825201,0.09135375709870795,-0.138489602305712,9.160215552248145,0.1236006607484705,3.517082238524365,1.360351563,-0.07647705078,-0.07305908203,0.6059570313,0.2526855469,0.01015472412,0.4328613281,0.1309814453,0.2066650391
1.135,1,0,0,9.76355437060752,-0.1410334415297885,0.9762357268919359,9.82580361328125,0.08768763580690014,-0.111928927624563,9.160215552248145,0.134299749339147,3.5194764409200197,1.172851563,-0.2719726563,-0.002603530884,0.53515625,0.3662109375,-0.03799438477,0.5014648438,0.1232910156,0.1298828125
1.14,1,0,0,9.7683427734375,-0.13227964171137452,0.9690531219605005,9.81622681154395,0.08993219986390956,-0.1045966849821075,9.165003955078125,0.11709142492822601,3.53863005420127,0.9165039063,-0.4638671875,-0.1004638672,0.37890625,0.2189941406,-0.05120849609,0.4482421875,0.08471679688,0.1304931641
1.145,1,0,0,9.773131177248146,-0.130483990453999,0.98222123101781,9.82580361328125,0.09142857589537805,-0.1120785652375165,9.150638745607521,0.1380406894668515,3.52665904516499,0.919921875,-0.3249511719,-0.1634521484,0.2366943359,0.1553955078,-0.1018066406,0.5922851563,0.1923828125,0.1214599609
1.15,1,0,0,9.758765966796876,-0.1348234810335175,0.980425579858501,9.82580361328125,0.08761281700042339,-0.1065419738524365,9.1554271484375,0.1111807395597955,3.5314474489756353,0.876953125,-0.0859375,-0.2056884766,-0.1341552734,0.2023925781,-0.2435302734,0.50390625,-0.1683349609,-0.01335144043
1.155,1,0,0,9.7683427734375,-0.149113872138945,0.9756371765381885,9.82580361328125,0.101005382565423,-0.0963666168188374,9.165003955078125,0.109759182383837,3.5194764409200197,1.032226563,-0.22265625,-0.2181396484,-0.3471679688,0.1003417969,0.07067871094,0.53515625,-0.3820800781,0.01844787598
1.16,1,0,0,9.753977563966895,-0.137068045031687,0.989403836243445,9.81622681154395,0.1123778404634235,-0.10878653794867249,9.165003955078125,0.1093102695449765,3.5027170290537604,1.26953125,-0.1723632813,-0.2177734375,-0.6059570313,0.1877441406,-0.04476928711,0.4597167969,-0.4130859375,0.01153564453
1.165,1,0,0,9.76355437060752,-0.1380406894668515,0.970250222766062,9.82580361328125,0.10886135670611599,-0.1090858131745795,9.165003955078125,0.1045966849821075,3.52665904516499,1.475585938,-0.4626464844,-0.1591796875,-0.5991210938,0.01207733154,-0.1212158203,0.3967285156,-0.1987304688,0.07165527344
1.17,1,0,0,9.773131177248146,-0.1539770943147675,0.957082113610686,9.8449572265625,0.099359368921001,-0.0906803878796438,9.160215552248145,0.1235258418929605,3.5003228276387697,1.422851563,-0.4855957031,-0.09802246094,-0.8583984375,-0.03747558594,-0.1224365234,0.34375,-0.2366943359,0.1257324219
1.175,1,0,0,9.7683427734375,-0.1355716690002185,0.964863269092002,9.80186159717002,0.09868599971174351,-0.09861118085623351,9.184157568359375,0.144774381657493,3.50750543188374,1.1875,-0.2502441406,-0.140625,-0.8681640625,0.04681396484,-0.130859375,0.1846923828,-0.3825683594,0.1732177734
1.18,1,0,0,9.76355437060752,-0.13744213901503752,0.9654618194457495,9.81622681154395,0.0870890853845061,-0.0971896236410484,9.179369165529396,0.144175831205679,3.536235851805615,0.98046875,-0.2529296875,-0.1188964844,-0.9619140625,-0.1149291992,0.08044433594,0.1605224609,-0.2296142578,0.1876220703
1.185,1,0,0,9.773131177248146,-0.148814596913038,0.9858125331402949,9.81622681154395,0.1025017585968915,-0.083722239298992,9.16979235888877,0.1553238327332825,3.52665904516499,1.391601563,-0.5112304688,-0.2277832031,-1.09375,-0.2180175781,-0.2592773438,0.3891601563,-0.1683349609,0.06384277344
1.19,1,0,0,9.78270798388877,-0.159812960827688,0.974440075732627,9.81622681154395,0.09793781165678266,-0.07945756759459681,9.150638745607521,0.131007722050303,3.5194764409200197,1.84765625,-0.2790527344,-0.1748046875,-0.6420898438,-0.2490234375,-0.2602539063,0.4340820313,-0.07592773438,0.1619873047
1.195,1,0,0,9.76355437060752,-0.165050276986861,0.9684545715086865,9.81622681154395,0.10272621496728851,-0.08993219986390956,9.145850341796875,0.13444938695210049,3.5098996342793947,2.0703125,-0.4321289063,-0.33984375,-0.3811035156,-0.3364257813,-0.5126953125,0.3725585938,0.01358032227,-0.1358642578
1.2,1,0,0,9.74918916015625,-0.16475100176095403,0.9528922607421875,9.81622681154395,0.10160393291917051,-0.098985274839584,9.136273535156251,0.1444002876741425,3.5098996342793947,2.052734375,-0.1832275391,-0.2055664063,-0.2036132813,-0.3256835938,-0.3308105469,0.3259277344,0.1511230469,-0.1593017578
1.205,1,0,0,9.76355437060752,-0.1520318054444385,0.964863269092002,9.80665,0.10242693974138149,-0.09023147507020325,9.126696728515626,0.129361708405881,3.5122938356943854,2.458984375,-0.2626953125,-0.2634277344,0.2849121094,-0.1044921875,-0.2221679688,0.2883300781,0.04443359375,-0.08215332031
1.21,1,0,0,9.76355437060752,-0.17747019807746953,0.942118353296001,9.80186159717002,0.08402151451509235,-0.10512041667647799,9.13148513232627,0.141482354368649,3.5290532475606446,2.5859375,-0.06518554688,-0.08160400391,0.6142578125,-0.06173706055,-0.5400390625,0.2956542969,0.1282958984,-0.09808349609
1.215,1,0,0,9.76355437060752,-0.162207162438811,0.9361328491701271,9.82580361328125,0.0808791248293952,-0.1164928745744785,9.145850341796875,0.127566057246572,3.5194764409200197,2.810546875,-0.1158447266,-0.07958984375,0.8627929688,-0.1408691406,-0.3649902344,0.3488769531,0.1058349609,-0.06768798828
1.22,1,0,0,9.76355437060752,-0.160411511279502,0.951695159936626,9.81622681154395,0.08439560851805616,-0.115445411283804,9.1554271484375,0.131830728872514,3.52665904516499,2.740234375,0.1437988281,-0.2822265625,1.032226563,-0.3137207031,-0.2749023438,0.4787597656,0.1152954102,0.08435058594
1.225,1,0,0,9.7683427734375,-0.1544260070555615,0.934935748266499,9.81622681154395,0.06808510970640295,-0.09397241515868116,9.1554271484375,0.1230021102966565,3.5194764409200197,2.408203125,-0.0142364502,-0.1370849609,1.001953125,-0.1547851563,-0.3979492188,0.3642578125,0.1142578125,0.01637268066
1.23,1,0,0,9.7683427734375,-0.15771803434440548,0.942118353296001,9.82580361328125,0.0769137283312937,-0.08626607857210175,9.16979235888877,0.1043722286117105,3.50511123046875,2.375,-0.2170410156,-0.2493896484,1.008789063,-0.01756286621,-0.4812011719,0.3791503906,0.1448974609,0.008453369141
1.235,1,0,0,9.74918916015625,-0.1574187591184985,0.9528922607421875,9.835380424825201,0.08888473663207494,-0.12322656666705349,9.179369165529396,0.113574941268985,3.5027170290537604,2.19921875,-0.2263183594,-0.1430664063,0.7890625,0.1245117188,-0.3735351563,0.4694824219,0.3369140625,0.06024169922
1.24,1,0,0,9.730035546875,-0.15831658479621952,0.9433154541015625,9.835380424825201,0.121730190635585,-0.140434891176041,9.184157568359375,0.1260696812151035,3.5003228276387697,2.423828125,-0.3779296875,-0.1856689453,0.2307128906,0.3071289063,-0.2543945313,0.2705078125,0.4348144531,-0.04608154297
1.245,1,0,0,9.74918916015625,-0.138190327079805,0.9439140045533765,9.835380424825201,0.131082540905813,-0.12906243327804048,9.16979235888877,0.14776713372043002,3.5003228276387697,2.33203125,-0.05551147461,-0.2592773438,-0.4768066406,0.6557617188,-0.1245727539,0.06494140625,0.3576660156,-0.02160644531
1.25,1,0,0,9.74918916015625,-0.133476742516936,0.93852705078125,9.82580361328125,0.128912795665087,-0.130483990453999,9.165003955078125,0.1517325302185315,3.5122938356943854,2.51171875,-0.1684570313,-0.2416992188,-0.9409179688,0.6337890625,0.07434082031,-0.05645751953,0.2805175781,0.01763916016
1.255,1,0,0,9.7683427734375,-0.14245499880381352,0.9331400970091235,9.835380424825201,0.13512275616135802,-0.1279401512299225,9.150638745607521,0.1768716476256555,3.52426484375,2.6875,-0.4953613281,0.01625061035,-1.318359375,0.7729492188,0.06207275391,-0.07238769531,0.3720703125,-0.04400634766
1.26,1,0,0,9.7683427734375,-0.13669395104833648,0.9439140045533765,9.8449572265625,0.115220954913407,-0.1043722286117105,9.1554271484375,0.157119483990658,3.53863005420127,2.716796875,-0.4033203125,-0.06884765625,-1.106445313,0.6616210938,-0.03047180176,0.3098144531,0.2418212891,-0.2819824219
1.265,1,0,0,9.7683427734375,-0.1369932262742435,0.9373299499756885,9.82580361328125,0.101005382565423,-0.0827495948834408,9.165003955078125,0.1459714824630545,3.5410242556162603,2.384765625,-0.2778320313,-0.1411132813,-0.2983398438,0.5434570313,-0.3940429688,0.5317382813,0.1209716797,-0.2442626953
1.27,1,0,0,9.74918916015625,-0.1364694946779395,0.9594763153198755,9.81622681154395,0.09786299286011256,-0.08155249404845935,9.179369165529396,0.123675479505914,3.517082238524365,2.169921875,-0.3991699219,-0.3015136719,0.4973144531,0.6401367188,-0.529296875,0.7690429688,0.1062011719,-0.3142089844
1.275,1,0,0,9.76355437060752,-0.113574941268985,0.9498995086792505,9.80186159717002,0.06771101570343915,-0.0602291355166767,9.174580761718751,0.110282913980141,3.517082238524365,2.06640625,-0.4799804688,-0.4462890625,1.530273438,0.3813476563,-0.6333007813,0.6762695313,0.2116699219,-0.4899902344
1.28,1,0,0,9.7683427734375,-0.137292501402084,0.9504980591310646,9.80665,0.0746691642742843,-0.06075286712278735,9.184157568359375,0.08634089736877186,3.5098996342793947,1.91796875,-0.4265136719,-0.3254394531,2.373046875,0.5390625,-0.59765625,0.3623046875,0.4018554688,-0.4284667969
1.285,1,0,0,9.78749638671875,-0.1331774673890955,0.9493009582274365,9.80665,0.09329904593961699,-0.12427402995772799,9.141061938966896,0.07736264114073425,3.48835181860249,2.302734375,-0.1343994141,-0.3195800781,2.369140625,0.5620117188,-0.4597167969,0.0108795166,0.4853515625,-0.3125
1.29,1,0,0,9.777919580078125,-0.1252466743928925,0.9528922607421875,9.80665,0.1112555584153055,-0.1659481025665155,9.117119921875,0.0702174455684072,3.4715924077168947,2.443359375,-0.2634277344,-0.3093261719,1.745117188,0.904296875,-0.2507324219,-0.072265625,0.3637695313,-0.1279296875
1.295,1,0,0,9.74918916015625,-0.12098200266888401,0.9528922607421875,9.792284790529395,0.09861118085623351,-0.171035781112735,9.107543115234375,0.08843582382263439,3.457227197265625,2.384765625,-0.3322753906,-0.1866455078,0.07458496094,1.008789063,-0.2060546875,0.1080932617,0.7338867188,0.2122802734
1.3,1,0,0,9.758765966796876,-0.1123778404634235,0.970848773217876,9.80186159717002,0.120682727442977,-0.1818096885589215,9.088389501953126,0.122553197457796,3.4715924077168947,2.5625,-0.3745117188,-0.05490112305,-1.341796875,0.8559570313,-0.2219238281,0.2459716797,0.6508789063,0.2961425781
1.305,1,0,0,9.739612353515625,-0.10998363875423399,0.955286462451377,9.78270798388877,0.10953472591537351,-0.136319857064986,9.107543115234375,0.1574187591184985,3.4835634157725104,2.513671875,-0.5151367188,-0.07611083984,-2.33203125,0.88671875,-0.3308105469,0.3664550781,0.8745117188,0.3933105469
1.31,1,0,0,9.758765966796876,-0.1566705711517975,0.941519802844187,9.78749638671875,0.088660280232258,-0.109160631932023,9.136273535156251,0.189590843942171,3.48835181860249,2.546875,-0.3813476563,0.03707885742,-2.369140625,0.5200195313,-0.1259765625,0.4731445313,0.8813476563,0.32421875
1.315,1,0,0,9.773131177248146,-0.130858084535416,0.919971987951814,9.78270798388877,0.07298574123152725,-0.1112555584153055,9.1554271484375,0.1913864951995465,3.4811692143575197,2.5234375,-0.3198242188,0.06677246094,-2.107421875,0.6928710938,0.1424560547,0.4816894531,0.7685546875,0.5307617188
1.32,1,0,0,9.773131177248146,-0.1378162330964545,0.9074024292482521,9.80665,0.09846154324327999,-0.1033247654191025,9.203311181640625,0.18061258775336,3.4835634157725104,2.21875,-0.3957519531,-0.06390380859,-1.513671875,0.51171875,0.3837890625,0.4895019531,0.751953125,0.3630371094
1.325,1,0,0,9.777919580078125,-0.1284638828262265,0.919971987951814,9.81622681154395,0.109160631932023,-0.0797568428008905,9.2320416015625,0.1692401298553595,3.497928625243115,1.703125,-0.3173828125,0.02389526367,-1.014648438,0.580078125,0.5458984375,0.4887695313,0.8427734375,0.1564941406
1.33,1,0,0,9.777919580078125,-0.140060797094624,0.931942996203562,9.8449572265625,0.11701660617078251,-0.08289923248658765,9.260772021484375,0.160860424020296,3.514688037109375,1.41015625,-0.2534179688,-0.03982543945,-0.3918457031,0.78125,0.4597167969,0.724609375,0.9174804688,-0.1965332031
1.335,1,0,0,9.777919580078125,-0.1590647727629205,0.951096609484812,9.8449572265625,0.137292501402084,-0.110208095124631,9.255983618654396,0.15622165831293702,3.5122938356943854,1.5234375,-0.515625,-0.1428222656,-0.1605224609,1.004882813,0.2376708984,0.6030273438,0.8325195313,-0.2717285156
1.34,1,0,0,9.777919580078125,-0.149113872138945,0.9726444244752516,9.873687651387701,0.179265849334845,-0.106392336239483,9.25119521484375,0.1547252822814685,3.50511123046875,1.73046875,-0.5341796875,-0.03448486328,-0.09490966797,1.060546875,0.04858398438,0.3979492188,0.7915039063,-0.5073242188
1.345,1,0,0,9.78270798388877,-0.15876549763508,0.9762357268919359,9.873687651387701,0.18405425265515749,-0.08746317939727656,9.236830005373145,0.16400281369618652,3.497928625243115,2.357421875,-0.5283203125,-0.3601074219,-0.1007080078,0.7993164063,-0.05883789063,0.009033203125,0.7661132813,-0.6274414063
1.35,1,0,0,9.76355437060752,-0.11394903525233549,0.939125601233064,9.86411083984375,0.20275895309754702,-0.1019032081450775,9.193734375,0.177021285238609,3.5194764409200197,2.8828125,-0.6430664063,-0.2484130859,-0.1477050781,0.69921875,-0.1904296875,-0.1817626953,0.7568359375,-0.7329101563
1.355,1,0,0,9.78270798388877,-0.1315314537446735,0.9050082275390625,9.8449572265625,0.1913864951995465,-0.11731588139668951,9.150638745607521,0.1698386803071735,3.5122938356943854,3.150390625,-0.6137695313,-0.1401367188,-0.08514404297,0.8833007813,-0.3872070313,-0.1287841797,0.8100585938,-0.8706054688
1.36,1,0,0,9.7683427734375,-0.09053075027649694,0.878073458874563,9.835380424825201,0.187495917556955,-0.12105682142632751,9.102754712404396,0.1747767212404395,3.5290532475606446,3.123046875,-0.3957519531,0.05575561523,0.05847167969,0.7626953125,-0.75,0.1362304688,1.094726563,-0.7065429688
1.365,1,0,0,9.78270798388877,-0.09053075027649694,0.872087954748689,9.80665,0.15322890625,-0.0980874492599295,9.064447485841896,0.159513685601781,3.5314474489756353,3.0546875,-0.4592285156,0.002876281738,0.3713378906,0.728515625,-0.9609375,0.09100341797,1.01953125,-0.5297851563
1.37,1,0,0,9.74440075732627,-0.0808791248293952,0.8541314422730005,9.78270798388877,0.12389993587631101,-0.124797761554032,9.05487067920127,0.16938976746831302,3.555389465086865,2.556640625,-0.4213867188,-0.06164550781,0.6860351563,0.83984375,-1.088867188,0.3889160156,0.947265625,-0.1878662109
1.375,1,0,0,9.753977563966895,-0.06606500205901715,0.8702923034913135,9.76355437060752,0.11058218920604801,-0.11110592080235202,9.050082275390626,0.158915135149967,3.55778366748252,1.9375,-0.1987304688,-0.06045532227,0.96875,0.8217773438,-1.086914063,0.4968261719,0.7895507813,0.2099609375
1.38,1,0,0,9.74918916015625,-0.0783352855660921,0.8792705596801245,9.758765966796876,0.0889595554385517,-0.0946457843777453,9.0788126953125,0.13459902456505402,3.5314474489756353,1.389648438,-0.322265625,0.05297851563,0.8500976563,0.7817382813,-1.182617188,0.4060058594,0.6982421875,0.3715820313
1.385,1,0,0,9.734823950685646,-0.08836100501615766,0.9050082275390625,9.7683427734375,0.07545476169816025,-0.1183633445892975,9.09796630859375,0.1333271049039825,3.536235851805615,1.040039063,-0.1809082031,0.04159545898,0.634765625,0.7026367188,-0.8081054688,0.2919921875,0.60546875,0.3571777344
1.39,1,0,0,9.76355437060752,-0.08791209220671711,0.9193734375,9.758765966796876,0.051924248507703254,-0.12584522474664,9.13148513232627,0.1331026485335855,3.5314474489756353,1.049804688,-0.2602539063,-0.1331787109,0.5146484375,0.7856445313,-0.7119140625,0.1148071289,0.8959960938,0.3488769531
1.395,1,0,0,9.74918916015625,-0.07930792999144995,0.916380685437063,9.7683427734375,0.04253448886856015,-0.10781389351350801,9.150638745607521,0.14993687896115598,3.5410242556162603,0.7827148438,-0.3024902344,-0.08837890625,0.06311035156,0.8168945313,-0.4362792969,0.07684326172,0.841796875,0.349609375
1.4,1,0,0,9.758765966796876,-0.07968202400422039,0.9193734375,9.777919580078125,0.04302081107633575,-0.0738461574520733,9.16979235888877,0.1602618736665485,3.54341845703125,0.5708007813,-0.4541015625,-0.1716308594,0.01737976074,1.061523438,-0.1392822266,0.0625,0.7177734375,0.1364746094
1.405,1,0,0,9.78749638671875,-0.1043722286117105,0.9044096770872485,9.777919580078125,0.06512976703199436,-0.101454295306217,9.165003955078125,0.16400281369618652,3.5410242556162603,0.6650390625,-0.5444335938,-0.1010742188,-0.09448242188,0.876953125,0.1705322266,-0.265625,0.7470703125,0.1228637695
1.41,1,0,0,9.76355437060752,-0.11761515652452999,0.9026140259279396,9.78749638671875,0.070591539571371,-0.09876081846918701,9.165003955078125,0.1646013641480005,3.53863005420127,1.064453125,-0.6000976563,-0.05987548828,-0.3671875,0.880859375,0.3374023438,-0.1505126953,0.638671875,-0.1977539063
1.415,1,0,0,9.74918916015625,-0.1366191321928265,0.8960299713502515,9.80665,0.0695814857476781,-0.08716390419098285,9.160215552248145,0.149413147364852,3.54341845703125,1.48046875,-0.6733398438,-0.2861328125,-0.6728515625,1.08984375,0.4191894531,-0.1591796875,0.775390625,-0.251953125
1.42,1,0,0,9.74918916015625,-0.1148468609300565,0.8942343200928761,9.80665,0.1043722286117105,-0.099284550065491,9.160215552248145,0.134673843420564,3.555389465086865,1.609375,-0.6552734375,-0.2626953125,-1.0703125,0.8857421875,0.3371582031,-0.08258056641,0.74609375,-0.2142333984
1.425,1,0,0,9.753977563966895,-0.102052845758031,0.8948328704466235,9.81622681154395,0.13227964171137452,-0.10826280635236851,9.150638745607521,0.12943652726139102,3.54341845703125,1.622070313,-0.5478515625,-0.3405761719,-1.463867188,0.8559570313,0.2406005859,0.02435302734,0.716796875,-0.01608276367
1.43,1,0,0,9.7683427734375,-0.0935235023492406,0.9080009796019995,9.78749638671875,0.140659347546438,-0.0992097313080475,9.136273535156251,0.121206459039281,3.517082238524365,1.481445313,-0.38671875,-0.2517089844,-1.852539063,0.8193359375,0.265625,-0.1286621094,0.7939453125,0.1904296875
1.435,1,0,0,9.773131177248146,-0.09539397239347955,0.9241618408203125,9.80186159717002,0.16953940508126653,-0.1005564697265625,9.136273535156251,0.138489602305712,3.5314474489756353,1.42578125,-0.3088378906,-0.1611328125,-2.048828125,0.7094726563,0.2362060547,-0.1431884766,0.6713867188,0.1761474609
1.44,1,0,0,9.777919580078125,-0.100706107339516,0.9169792358888771,9.78749638671875,0.176422734786795,-0.121206459039281,9.11233151904502,0.121281277894791,3.517082238524365,1.298828125,-0.4255371094,-0.07647705078,-1.982421875,0.9013671875,0.1850585938,-0.2973632813,0.9243164063,0.3205566406
1.445,1,0,0,9.773131177248146,-0.1081879874968585,0.9151835846315015,9.792284790529395,0.1569698463777045,-0.08806172980986395,9.117119921875,0.1120785652375165,3.5218706423350103,1.181640625,-0.66796875,-0.1427001953,-1.734375,1.125976563,0.1171264648,-0.3820800781,0.9995117188,0.1752929688
1.45,1,0,0,9.758765966796876,-0.1164928745744785,0.909796630859375,9.80186159717002,0.16011223605359498,-0.08364742050232189,9.117119921875,0.126443775198454,3.54341845703125,1.17578125,-0.4291992188,-0.1688232422,-1.216796875,0.8662109375,-0.07257080078,-0.3291015625,1.084960938,0.3576660156
1.455,1,0,0,9.773131177248146,-0.107514618287601,0.8858546142578125,9.792284790529395,0.146719670527822,-0.08349778289917506,9.107543115234375,0.11985972062076601,3.536235851805615,1.068359375,-0.72265625,-0.01239013672,-0.619140625,0.9453125,0.007797241211,-0.3361816406,1.029296875,0.03001403809
1.46,1,0,0,9.777919580078125,-0.11065700796349151,0.9109937316649365,9.797073193359376,0.135945762983569,-0.0948702407873689,9.102754712404396,0.1287631580521335,3.54581265844624,0.78515625,-0.7509765625,-0.03637695313,0.0009179115295,1.022460938,-0.3388671875,0.09045410156,1.0546875,0.1646728516
1.465,1,0,0,9.76355437060752,-0.12853870158367,0.929548794592439,9.792284790529395,0.13227964171137452,-0.08364742050232189,9.107543115234375,0.1348234810335175,3.52665904516499,0.5922851563,-0.7001953125,-0.0380859375,0.6552734375,1.131835938,-0.3171386719,-0.01482391357,0.8774414063,-0.02433776855
1.47,1,0,0,9.739612353515625,-0.0822258632675235,0.9026140259279396,9.80665,0.1207575462004205,-0.1022024833709845,9.136273535156251,0.11821370697634401,3.514688037109375,0.4663085938,-0.5546875,-0.0178527832,0.9321289063,1.174804688,-0.4228515625,-0.07720947266,1.068359375,0.02819824219
1.475,1,0,0,9.74918916015625,-0.09397241515868116,0.9050082275390625,9.80665,0.120607908587467,-0.104297409854267,9.136273535156251,0.1314566348891635,3.5194764409200197,0.4296875,-0.6328125,-0.09362792969,0.7758789063,1.2109375,-0.3286132813,-0.106628418,0.9140625,-0.2150878906
1.48,1,0,0,9.753977563966895,-0.110806645576445,0.906205328344624,9.81622681154395,0.11993453937820951,-0.105943423498689,9.160215552248145,0.1498620602037125,3.52426484375,0.5205078125,-0.5688476563,0.005439758301,0.3190917969,1.309570313,-0.4663085938,0.12109375,1.059570313,-0.2783203125
1.485,1,0,0,9.753977563966895,-0.108636900335719,0.896628521703999,9.82580361328125,0.09172785110167175,-0.1028010338227985,9.165003955078125,0.111031101946842,3.5194764409200197,0.4724121094,-0.4685058594,0.06536865234,0.2038574219,1.209960938,-0.3706054688,0.01463317871,1.036132813,-0.3464355469
1.49,1,0,0,9.76355437060752,-0.10369885940245299,0.899621273766936,9.81622681154395,0.07878419837553266,-0.0926256767303595,9.16979235888877,0.1191863514115085,3.54581265844624,0.3391113281,-0.6879882813,0.01404571533,-0.1103515625,1.112304688,-0.5185546875,0.03689575195,1.119140625,-0.4465332031
1.495,1,0,0,9.7683427734375,-0.11552023013931399,0.884058963000437,9.81622681154395,0.09554360999662641,-0.100706107339516,9.174580761718751,0.140060797094624,3.548206860841895,0.3781738281,-0.7426757813,-0.09985351563,-0.3347167969,1.131835938,-0.6787109375,-0.1911621094,1.01953125,-0.3449707031
1.5,1,0,0,9.7683427734375,-0.08551789054656085,0.8930372192873145,9.80665,0.094122052761828,-0.1057937858857355,9.174580761718751,0.130858084535416,3.54581265844624,0.4665527344,-0.6040039063,-0.2541503906,-0.5219726563,0.8076171875,-0.5317382813,-0.2666015625,0.888671875,-0.4279785156
1.505,1,0,0,9.777919580078125,-0.109160631932023,0.8834604126466895,9.80665,0.1016787517746805,-0.07399579505522015,9.160215552248145,0.138414783450202,3.5314474489756353,0.6118164063,-0.6186523438,-0.3681640625,-0.5224609375,1.151367188,-0.2868652344,-0.04656982422,1.041992188,-0.521484375
1.51,1,0,0,9.773131177248146,-0.1252466743928925,0.8948328704466235,9.82580361328125,0.1051952354339215,-0.09674071083160786,9.136273535156251,0.146944126898219,3.53863005420127,0.7109375,-0.5678710938,-0.1540527344,-0.6303710938,0.8828125,-0.2978515625,-0.06057739258,0.8818359375,-0.4143066406
1.515,1,0,0,9.773131177248146,-0.12382511711886751,0.891241568029939,9.82580361328125,0.1140238541078455,-0.11222820285047001,9.126696728515626,0.156520933538844,3.5314474489756353,0.7294921875,-0.7075195313,-0.2208251953,-0.8330078125,1.024414063,-0.2663574219,-0.1374511719,0.9653320313,-0.4675292969
1.52,1,0,0,9.76355437060752,-0.10556932941727201,0.8637082489136255,9.80665,0.117390700154133,-0.1019780270005875,9.141061938966896,0.1586158600221265,3.54581265844624,0.5893554688,-0.9174804688,-0.09655761719,-0.9428710938,0.7709960938,-0.2320556641,-0.4580078125,0.986328125,-0.4885253906
1.525,1,0,0,9.753977563966895,-0.108562081480209,0.8792705596801245,9.797073193359376,0.1175403377670865,-0.08357260169584516,9.102754712404396,0.1569698463777045,3.5506010622568853,0.4892578125,-0.9365234375,-0.2727050781,-1.03125,0.9760742188,-0.2575683594,-0.3210449219,1.063476563,-0.5048828125
1.53,1,0,0,9.773131177248146,-0.1265934128114075,0.8762778076171875,9.80665,0.122852472683703,-0.0805050308264314,9.11233151904502,0.1623568000517645,3.55778366748252,0.4379882813,-1.020507813,-0.1417236328,-0.8256835938,0.9721679688,-0.2360839844,-0.3813476563,0.9331054688,-0.6342773438
1.535,1,0,0,9.753977563966895,-0.133252286146539,0.878672009326377,9.80186159717002,0.12202946586149199,-0.08147767525178926,9.117119921875,0.1593640479888275,3.56496627172749,0.5205078125,-0.9594726563,-0.2340087891,-0.4418945313,0.931640625,-0.2692871094,-0.2587890625,0.8491210938,-0.5649414063
1.54,1,0,0,9.7683427734375,-0.146121120076008,0.8541314422730005,9.777919580078125,0.125097036779939,-0.0740706138616969,9.126696728515626,0.1563712959258905,3.56496627172749,0.5747070313,-0.97265625,-0.203125,-0.02304077148,1.159179688,-0.3850097656,-0.3352050781,0.9106445313,-0.51171875
1.545,1,0,0,9.7683427734375,-0.13676876980577998,0.849343038952688,9.797073193359376,0.1235258418929605,-0.08237550087067036,9.09796630859375,0.136245038209476,3.567360474123145,0.4033203125,-0.8188476563,-0.05316162109,0.2687988281,0.912109375,-0.2377929688,-0.4643554688,0.7944335938,-0.6098632813
1.55,1,0,0,9.758765966796876,-0.14252981756125702,0.859518396045127,9.78749638671875,0.126144499972547,-0.103175127806149,9.107543115234375,0.13459902456505402,3.58411988500874,0.5209960938,-0.6157226563,-0.06292724609,0.5561523438,0.9545898438,-0.4428710938,-0.4619140625,0.4733886719,-0.623046875
1.555,1,0,0,9.7683427734375,-0.13138181613172,0.8708908538450609,9.792284790529395,0.1386392399186655,-0.09703998603790155,9.11233151904502,0.1355716690002185,3.56496627172749,0.5170898438,-0.7548828125,-0.03057861328,0.4340820313,1.013671875,-0.5004882813,-0.4011230469,0.4877929688,-0.798828125
1.56,1,0,0,9.76355437060752,-0.1107318268190015,0.8469488372434985,9.80186159717002,0.12861352043918,-0.09427169036497486,9.11233151904502,0.147243402124126,3.53863005420127,0.6118164063,-0.8525390625,0.06335449219,0.2320556641,0.865234375,-0.5073242188,-0.4462890625,0.3957519531,-0.7602539063
1.565,1,0,0,9.76355437060752,-0.118961894943045,0.8511386902100635,9.78749638671875,0.1420809047223965,-0.107290161917204,9.121908325685645,0.1574187591184985,3.5290532475606446,0.6870117188,-0.822265625,-0.005294799805,-0.05328369141,0.8305664063,-0.3942871094,-0.4399414063,0.5942382813,-0.8452148438
1.57,1,0,0,9.7683427734375,-0.123451023135517,0.887650265515188,9.80665,0.1309329032928595,-0.104821141450571,9.141061938966896,0.15592238308703,3.52426484375,0.7998046875,-0.7358398438,-0.09008789063,-0.201171875,1.034179688,-0.4599609375,-0.3869628906,0.671875,-0.7387695313
1.575,1,0,0,9.753977563966895,-0.115445411283804,0.890044467126311,9.80665,0.106392336239483,-0.109160631932023,9.136273535156251,0.151882167831485,3.5290532475606446,1.103515625,-0.630859375,-0.1511230469,-0.2091064453,1.056640625,-0.4675292969,-0.4274902344,0.970703125,-0.603515625
1.58,1,0,0,9.758765966796876,-0.10489596020801449,0.888248815967002,9.81622681154395,0.0805050308264314,-0.1068412490783435,9.121908325685645,0.1492635097518985,3.533841650390625,1.048828125,-0.5869140625,-0.2592773438,0.2917480469,0.8505859375,-0.7036132813,-0.2362060547,0.89453125,-0.703125
1.585,1,0,0,9.74918916015625,-0.1155950488967575,0.877474908422749,9.792284790529395,0.0849941589404502,-0.11058218920604801,9.11233151904502,0.12636895634294398,3.5098996342793947,0.9750976563,-0.71875,-0.2117919922,0.7080078125,1.025390625,-0.7290039063,-0.2661132813,0.8422851563,-0.51171875
1.59,1,0,0,9.773131177248146,-0.1109562831893985,0.890643017578125,9.777919580078125,0.0741828420665087,-0.08117840003568891,9.117119921875,0.1317559101150705,3.50750543188374,0.9887695313,-1.03125,-0.4448242188,1.123046875,1.016601563,-0.5698242188,-0.3115234375,0.7651367188,-0.5034179688
1.595,1,0,0,9.773131177248146,-0.1142483104782425,0.8930372192873145,9.777919580078125,0.0844704273245329,-0.07646481552185315,9.136273535156251,0.123675479505914,3.517082238524365,1.13671875,-1.137695313,-0.4807128906,1.44921875,1.237304688,-0.4067382813,-0.4262695313,0.8032226563,-0.47265625
1.6,1,0,0,9.78749638671875,-0.1407341663038815,0.8810662109375,9.81622681154395,0.0842459709149093,-0.0777367351535047,9.160215552248145,0.109759182383837,3.552995263671875,1.577148438,-0.9619140625,-0.6186523438,1.596679688,1.543945313,-0.4548339844,-0.4348144531,0.9560546875,-0.5419921875
1.605,1,0,0,9.773131177248146,-0.1364694946779395,0.8702923034913135,9.835380424825201,0.103175127806149,-0.08491934013397345,9.1554271484375,0.11701660617078251,3.54341845703125,1.9296875,-0.962890625,-0.4711914063,1.40234375,1.388671875,-0.46875,-0.2287597656,0.91015625,-0.6420898438
1.61,1,0,0,9.7683427734375,-0.134673843420564,0.8792705596801245,9.81622681154395,0.138714058676109,-0.09344868355257051,9.184157568359375,0.1259948623595935,3.5290532475606446,2.203125,-0.8657226563,-0.5322265625,1.192382813,1.078125,-0.5981445313,-0.2202148438,0.8100585938,-0.7563476563
1.615,1,0,0,9.758765966796876,-0.1149964984449435,0.8607154968506885,9.8449572265625,0.139312609127923,-0.10272621496728851,9.179369165529396,0.155174195120329,3.517082238524365,2.419921875,-0.939453125,-0.4763183594,0.7387695313,1.080078125,-0.5288085938,-0.501953125,0.7856445313,-0.7846679688
1.62,1,0,0,9.76355437060752,-0.1074397995301575,0.8505401397582495,9.835380424825201,0.1536778190888605,-0.120158995846673,9.150638745607521,0.1777694733033765,3.517082238524365,2.396484375,-0.8745117188,-0.1942138672,-0.03427124023,1.265625,-0.607421875,-0.8227539063,0.7358398438,-1.141601563
1.625,1,0,0,9.753977563966895,-0.11948562663741549,0.848744488500874,9.82580361328125,0.1810615005922205,-0.11177929001160951,9.150638745607521,0.203357503549361,3.5218706423350103,2.1640625,-0.779296875,-0.3420410156,-0.6967773438,1.118164063,-0.544921875,-0.7924804688,0.8735351563,-1.143554688
1.63,1,0,0,9.753977563966895,-0.1237502982633575,0.8637082489136255,9.80665,0.18405425265515749,-0.10242693974138149,9.136273535156251,0.2012625770660785,3.54581265844624,2.02734375,-1.130859375,-0.3686523438,-1.0234375,1.096679688,-0.5473632813,-0.7631835938,1.01171875,-1.10546875
1.635,1,0,0,9.74918916015625,-0.1289876144225305,0.881664761389314,9.81622681154395,0.1626560752776715,-0.08177695045808295,9.102754712404396,0.192134683264314,3.5410242556162603,1.9296875,-0.8969726563,-0.1734619141,-0.931640625,1.083984375,-0.353515625,-0.7036132813,1.159179688,-0.8549804688
1.64,1,0,0,9.758765966796876,-0.1260696812151035,0.855328543078562,9.78270798388877,0.143876555979772,-0.07870937957886255,9.088389501953126,0.18644845426628048,3.536235851805615,1.732421875,-1.026367188,-0.3796386719,-0.3923339844,1.077148438,-0.5043945313,-0.4350585938,0.9916992188,-0.9086914063
1.645,1,0,0,9.7683427734375,-0.104297409854267,0.8577227447877516,9.78749638671875,0.1426794551742105,-0.0677484251017742,9.102754712404396,0.164451726535047,3.552995263671875,1.53125,-1.252929688,-0.2626953125,0.2042236328,1.1015625,-0.5385742188,-0.498046875,1.275390625,-0.7270507813
1.65,1,0,0,9.753977563966895,-0.103474403032056,0.8571241943359376,9.797073193359376,0.1304091716965555,-0.05985504150390625,9.102754712404396,0.1380406894668515,3.548206860841895,1.243164063,-0.9912109375,-0.03857421875,0.7451171875,1.216796875,-0.58984375,-0.4821777344,1.17578125,-0.802734375
1.655,1,0,0,9.777919580078125,-0.10990881999679049,0.852335791015625,9.792284790529395,0.1347486621780075,-0.08289923248658765,9.107543115234375,0.12315174790960999,3.5506010622568853,1.224609375,-1.2421875,-0.2646484375,1.083984375,1.3828125,-0.5473632813,-0.3525390625,1.169921875,-0.6655273438
1.66,1,0,0,9.777919580078125,-0.12434884871517149,0.8625111481080641,9.792284790529395,0.110806645576445,-0.0856675281497077,9.117119921875,0.116567693331922,3.552995263671875,1.510742188,-0.99609375,-0.1517333984,1.14453125,1.337890625,-0.4614257813,-0.5727539063,1.104492188,-1.0234375
1.665,1,0,0,9.78270798388877,-0.12262801631330601,0.869095202685752,9.792284790529395,0.1129015720597275,-0.07900865478515626,9.126696728515626,0.112527478076377,3.5625720703125,1.6171875,-0.9877929688,-0.2047119141,1.177734375,1.322265625,-0.5595703125,-0.6196289063,1.188476563,-1.061523438
1.67,1,0,0,9.777919580078125,-0.11671733094487549,0.8373720306028735,9.80665,0.112527478076377,-0.06711246529085176,9.145850341796875,0.121206459039281,3.5625720703125,1.951171875,-1.14453125,-0.1700439453,0.9780273438,1.083007813,-0.56640625,-0.6181640625,0.9887695313,-1.290039063
1.675,1,0,0,9.78749638671875,-0.114697223317103,0.830189425671438,9.81622681154395,0.1356464878557285,-0.0661398208654939,9.141061938966896,0.1355716690002185,3.56496627172749,1.651367188,-1.150390625,-0.2712402344,0.8032226563,1.1796875,-0.6943359375,-0.7622070313,0.8725585938,-1.326171875
1.68,1,0,0,9.758765966796876,-0.1035492217894995,0.8164227661623146,9.80665,0.1248725803114755,-0.07175123099821075,9.13148513232627,0.153528181475907,3.5601778688975103,1.6015625,-0.9575195313,-0.2814941406,0.6181640625,1.069335938,-0.5634765625,-0.4636230469,0.712890625,-1.373046875
1.685,1,0,0,9.76355437060752,-0.10160393291917051,0.8218097198363745,9.797073193359376,0.11387421649489199,-0.07190086861116425,9.126696728515626,0.156820208764751,3.55778366748252,1.248046875,-0.9404296875,-0.2912597656,0.3686523438,1.37109375,-0.8696289063,-0.6162109375,0.7514648438,-1.181640625
1.69,1,0,0,9.7683427734375,-0.09569324759977325,0.8248024718993114,9.797073193359376,0.1251718555373825,-0.0690951635399025,9.11233151904502,0.164451726535047,3.555389465086865,1.208984375,-0.91015625,-0.3227539063,0.4086914063,1.172851563,-0.7841796875,-0.3869628906,0.6157226563,-1.059570313
1.695,1,0,0,9.773131177248146,-0.07998129921051411,0.8379705810546875,9.777919580078125,0.13130699727621,-0.07870937957886255,9.121908325685645,0.16804302904979798,3.54581265844624,1.162109375,-0.8715820313,-0.2700195313,0.400390625,1.173828125,-0.7690429688,-0.4108886719,0.80859375,-0.8544921875
1.7,1,0,0,9.76355437060752,-0.07908347359163301,0.8259995728029396,9.78749638671875,0.1253963119077795,-0.0711152711872883,9.121908325685645,0.160411511279502,3.552995263671875,0.869140625,-0.7666015625,-0.1812744141,0.3173828125,1.125,-0.7490234375,-0.5708007813,0.78515625,-0.8227539063
1.705,1,0,0,9.76355437060752,-0.08439560851805616,0.849343038952688,9.792284790529395,0.1230021102966565,-0.0653168140432829,9.117119921875,0.1536778190888605,3.572148876953125,0.60546875,-0.6401367188,-0.2531738281,0.21484375,0.9873046875,-0.5302734375,-0.3264160156,0.6889648438,-0.4875488281
1.71,1,0,0,9.758765966796876,-0.07788637275665156,0.871489404296875,9.797073193359376,0.1419312672075095,-0.049530046847547006,9.121908325685645,0.13684358866129,3.55778366748252,0.5698242188,-1.10546875,-0.2469482422,0.3579101563,1.081054688,-0.5405273438,-0.1965332031,0.6889648438,-0.572265625
1.715,1,0,0,9.777919580078125,-0.08918401183836866,0.8571241943359376,9.80186159717002,0.11761515652452999,-0.0705167207747009,9.13148513232627,0.1340004742113065,3.5625720703125,0.4528808594,-1.004882813,-0.1418457031,0.306640625,1.31640625,-0.5424804688,0.02656555176,0.4064941406,-0.6176757813
1.72,1,0,0,9.7683427734375,-0.0892588306448454,0.8385691315065016,9.792284790529395,0.1248725803114755,-0.06157587394499835,9.121908325685645,0.131007722050303,3.5601778688975103,0.2381591797,-1.009765625,-0.2041015625,0.4274902344,1.456054688,-0.615234375,0.06439208984,0.4685058594,-0.5571289063
1.725,1,0,0,9.758765966796876,-0.105045597820968,0.852335791015625,9.80665,0.1251718555373825,-0.05936871929613065,9.126696728515626,0.160860424020296,3.54581265844624,0.09130859375,-0.9580078125,-0.1979980469,0.6694335938,1.361328125,-0.7221679688,-0.02058410645,0.6201171875,-0.6953125
1.73,1,0,0,9.76355437060752,-0.1069160679338535,0.846350286889751,9.80186159717002,0.127715694761459,-0.06524199523680616,9.136273535156251,0.163104988116532,3.552995263671875,0.06994628906,-1.002929688,-0.09069824219,0.5708007813,1.20703125,-0.6186523438,-0.1726074219,0.548828125,-0.9150390625
1.735,1,0,0,9.777919580078125,-0.133476742516936,0.840364782763877,9.797073193359376,0.128912795665087,-0.08155249404845935,9.13148513232627,0.1619078873109705,3.5410242556162603,0.3359375,-0.9301757813,-0.2355957031,0.3959960938,1.1875,-0.6157226563,-0.1352539063,0.6640625,-0.83984375
1.74,1,0,0,9.773131177248146,-0.12434884871517149,0.852335791015625,9.80665,0.144475106431586,-0.0707037677761828,9.121908325685645,0.1616086120850635,3.548206860841895,0.3896484375,-0.9462890625,-0.2807617188,0.1975097656,1.001953125,-0.7143554688,0.1550292969,0.58203125,-0.734375
1.745,1,0,0,9.7683427734375,-0.1311573596632565,0.8547299927248145,9.78749638671875,0.1287631580521335,-0.08095394363587195,9.107543115234375,0.177320560464516,3.54581265844624,0.6259765625,-0.9038085938,-0.3334960938,-0.05184936523,1.07421875,-0.630859375,0.06390380859,0.55078125,-0.84765625
1.75,1,0,0,9.753977563966895,-0.12315174790960999,0.849343038952688,9.78270798388877,0.1460463013185645,-0.0746691642742843,9.11233151904502,0.1834557022033435,3.555389465086865,0.6977539063,-1.02734375,-0.3776855469,-0.1353759766,1.21875,-0.7719726563,0.2319335938,0.5053710938,-0.8178710938
1.755,1,0,0,9.76355437060752,-0.1282394264558295,0.842160433923186,9.797073193359376,0.148365684172244,-0.08102876243254205,9.117119921875,0.19587562329395203,3.5410242556162603,0.9658203125,-0.6826171875,-0.4038085938,-0.1264648438,0.9809570313,-0.8784179688,0.1244506836,0.6064453125,-0.5732421875
1.76,1,0,0,9.7683427734375,-0.11806406936339049,0.842758984375,9.78270798388877,0.166397015405376,-0.06150105514832825,9.11233151904502,0.1834557022033435,3.552995263671875,1.286132813,-0.5908203125,-0.2807617188,-0.4060058594,1.091796875,-0.8110351563,-0.09045410156,0.7895507813,-0.5278320313
1.765,1,0,0,9.78270798388877,-0.138489602305712,0.8535328918211865,9.792284790529395,0.1669955657591235,-0.049604865644217094,9.126696728515626,0.18794483029774903,3.5625720703125,1.5078125,-0.5327148438,-0.2423095703,-0.5405273438,0.9594726563,-0.8002929688,-0.07440185547,0.6743164063,-0.5571289063
1.77,1,0,0,9.7683427734375,-0.1357961253706155,0.8259995728029396,9.792284790529395,0.17507599636828,-0.043956046103358556,9.13148513232627,0.15831658479621952,3.5601778688975103,1.573242188,-0.4565429688,-0.3955078125,-0.759765625,1.001953125,-0.6538085938,0.002656936646,0.5600585938,-0.5952148438
1.775,1,0,0,9.777919580078125,-0.1213560966522345,0.8188169677734375,9.78749638671875,0.179714762075639,-0.04945522804107025,9.13148513232627,0.1946785224883905,3.5625720703125,1.721679688,-0.4753417969,-0.2260742188,-0.9770507813,1.10546875,-0.8911132813,-0.150390625,0.6499023438,-0.7329101563
1.78,1,0,0,9.777919580078125,-0.1132008472856345,0.8248024718993114,9.792284790529395,0.1689408546294525,-0.0595183568992775,9.121908325685645,0.174627083627486,3.574543078368115,1.795898438,-0.8022460938,-0.4509277344,-0.9379882813,0.9462890625,-0.5302734375,-0.04299926758,0.54296875,-0.7553710938
1.785,1,0,0,9.78749638671875,-0.110507370350538,0.8343792785399365,9.80665,0.16564882734060848,-0.05076455707105686,9.141061938966896,0.180014037301546,3.56496627172749,1.798828125,-0.8916015625,-0.2126464844,-0.8510742188,1.015625,-0.6879882813,-0.1656494141,0.6494140625,-0.7709960938
1.79,1,0,0,9.773131177248146,-0.123376204280007,0.8343792785399365,9.80665,0.1708861434997815,-0.06860884132232024,9.102754712404396,0.18540099107367253,3.567360474123145,1.944335938,-0.8828125,-0.3344726563,-0.9604492188,0.900390625,-0.5078125,-0.1192626953,0.5502929688,-0.6713867188
1.795,1,0,0,9.773131177248146,-0.12382511711886751,0.800860455297749,9.78749638671875,0.1494879661222955,-0.06666355247160455,9.117119921875,0.195576348068045,3.567360474123145,2.140625,-0.7797851563,-0.3576660156,-0.9775390625,0.9228515625,-0.4704589844,-0.2802734375,0.6655273438,-0.6020507813
1.8,1,0,0,9.7683427734375,-0.1057189670302255,0.795473501623689,9.78749638671875,0.14230536119085999,-0.043619361498729796,9.09317790576377,0.19497779771429752,3.5793314821787603,2.04296875,-0.7958984375,-0.3198242188,-0.8251953125,0.8413085938,-0.396484375,-0.3103027344,0.6025390625,-0.8305664063
1.805,1,0,0,9.78270798388877,-0.0929997707333233,0.7775169891480005,9.78270798388877,0.131681091357627,-0.03503390397772685,9.09796630859375,0.19692308658462648,3.593696691649365,1.887695313,-0.7509765625,-0.2448730469,-0.6357421875,0.7294921875,-0.5048828125,-0.1109619141,0.451171875,-0.7392578125
1.81,1,0,0,9.773131177248146,-0.104821141450571,0.800860455297749,9.7683427734375,0.116343236961525,-0.030787936977402498,9.088389501953126,0.20485387958082948,3.600879296875,1.752929688,-0.8461914063,-0.2443847656,-0.3171386719,0.4445800781,-0.4799804688,-0.3017578125,0.50390625,-0.685546875
1.815,1,0,0,9.777919580078125,-0.118438163346741,0.8283937744140625,9.78270798388877,0.129212070890994,-0.056338557815245306,9.11233151904502,0.19752163693837402,3.5889082888193853,1.82421875,-0.6669921875,-0.2232666016,-0.4885253906,0.09765625,-0.6000976563,-0.2395019531,0.2602539063,-0.5620117188
1.82,1,0,0,9.797073193359376,-0.10130465779133001,0.8056488586180615,9.777919580078125,0.141183079142742,-0.06954407634934305,9.083601099123145,0.2099415580289825,3.5889082888193853,1.8671875,-0.8374023438,-0.3125,-0.4702148438,0.07482910156,-0.408203125,-0.3071289063,0.1746826172,-0.7211914063
1.825,1,0,0,9.773131177248146,-0.11297639081717101,0.7990648040403735,9.797073193359376,0.163104988116532,-0.0554033227882225,9.083601099123145,0.1996165634216565,3.5793314821787603,1.827148438,-0.82421875,-0.4047851563,-0.5991210938,0.1641845703,-0.50390625,-0.3461914063,0.2534179688,-0.3627929688
1.83,1,0,0,9.7683427734375,-0.11282675320421749,0.78529814453125,9.792284790529395,0.150236154187063,-0.043507133293918004,9.09317790576377,0.19692308658462648,3.5697546755381353,1.70703125,-0.5131835938,-0.2105712891,-0.8295898438,0.3369140625,-0.3508300781,-0.5522460938,0.3208007813,-0.5068359375
1.835,1,0,0,9.758765966796876,-0.098985274839584,0.794874951171875,9.797073193359376,0.14252981756125702,-0.0462754289668447,9.09796630859375,0.1903390320069385,3.58172568359375,1.836914063,-0.5688476563,-0.4387207031,-0.5942382813,0.3178710938,-0.3051757813,-0.3642578125,0.650390625,-0.4794921875
1.84,1,0,0,9.758765966796876,-0.1109562831893985,0.8020575562013771,9.80186159717002,0.140584528690928,-0.057685296253373604,9.09317790576377,0.19437924726248348,3.58172568359375,1.858398438,-0.4506835938,-0.271484375,-0.6787109375,0.3928222656,-0.3383789063,-0.3479003906,0.4985351563,-0.4096679688
1.845,1,0,0,9.758765966796876,-0.0971148048443783,0.7960720519774365,9.78749638671875,0.1487397781555945,-0.0318541049035013,9.121908325685645,0.2099415580289825,3.58411988500874,1.7734375,-0.4926757813,-0.4396972656,-0.6875,0.5380859375,-0.1470947266,-0.4777832031,0.5419921875,-0.615234375
1.85,1,0,0,9.76355437060752,-0.131007722050303,0.797867703234812,9.78270798388877,0.152405899427789,-0.0430956298828125,9.11233151904502,0.1939303345216895,3.5889082888193853,1.916015625,-0.2958984375,-0.3806152344,-0.6352539063,0.4931640625,-0.07641601563,-0.5454101563,0.4211425781,-0.34765625
1.855,1,0,0,9.7683427734375,-0.10788871227095151,0.8002619049440015,9.7683427734375,0.13953706549831998,-0.04231003245893655,9.107543115234375,0.2069488059660455,3.58172568359375,2.01171875,-0.525390625,-0.2927246094,-0.5390625,0.3947753906,-0.1264648438,-0.5922851563,0.5581054688,-0.4013671875
1.86,1,0,0,9.773131177248146,-0.11282675320421749,0.795473501623689,9.792284790529395,0.153528181475907,-0.0316296484938777,9.117119921875,0.213682498156687,3.572148876953125,1.872070313,-0.3818359375,-0.3720703125,-0.5771484375,0.2639160156,-0.2885742188,-0.4245605469,0.5434570313,-0.4172363281
1.865,1,0,0,9.773131177248146,-0.1036240406450095,0.7972691528810646,9.78749638671875,0.16564882734060848,-0.038232407756023254,9.102754712404396,0.2091933700622815,3.5793314821787603,1.614257813,-0.5327148438,-0.37890625,-0.3566894531,0.1383056641,-0.1748046875,-0.4069824219,0.2232666016,-0.3696289063
1.87,1,0,0,9.758765966796876,-0.09172785110167175,0.8026561065551245,9.80186159717002,0.153528181475907,-0.047547348598496256,9.102754712404396,0.1952770729402045,3.591302490234375,1.671875,-0.3540039063,-0.3427734375,-0.4013671875,0.2980957031,-0.08447265625,-0.3537597656,0.2531738281,-0.4008789063
1.875,1,0,0,9.777919580078125,-0.0971896236410484,0.8032546570069385,9.80665,0.1649006393739075,-0.042197804263931396,9.09796630859375,0.204105691516062,3.5889082888193853,1.546875,-0.2548828125,-0.3603515625,-0.3022460938,0.2463378906,-0.02738952637,-0.3515625,-0.03674316406,-0.3225097656
1.88,1,0,0,9.7683427734375,-0.08686462898468915,0.814028564453125,9.792284790529395,0.155174195120329,-0.041337388043385354,9.102754712404396,0.180014037301546,3.574543078368115,1.477539063,-0.580078125,-0.2797851563,-0.2109375,0.3239746094,-0.07788085938,-0.3862304688,0.5517578125,-0.318359375
1.885,1,0,0,9.76355437060752,-0.08970774345428595,0.8032546570069385,9.797073193359376,0.14223054233535,-0.046200610160367944,9.102754712404396,0.173429982723858,3.58411988500874,1.248046875,-0.583984375,-0.3193359375,-0.2985839844,0.06317138672,-0.02008056641,-0.2093505859,0.3159179688,-0.3635253906
1.89,1,0,0,9.758765966796876,-0.09501987839051575,0.814627114904939,9.80186159717002,0.16564882734060848,-0.0415618444432023,9.121908325685645,0.178068748431217,3.591302490234375,1.119140625,-0.306640625,-0.2319335938,-0.59765625,0.39453125,-0.244140625,-0.1556396484,0.2856445313,-0.3405761719
1.895,1,0,0,9.777919580078125,-0.07627776852037126,0.8188169677734375,9.792284790529395,0.1448492004149365,-0.0466869323779502,9.117119921875,0.17238251953125,3.58172568359375,1.15234375,-0.04107666016,-0.05139160156,-0.603515625,0.2719726563,-0.1905517578,-0.3842773438,0.2629394531,-0.1408691406
1.9,1,0,0,9.7683427734375,-0.09105448189241426,0.8289923248658765,9.80665,0.150011697816666,-0.045227965735010096,9.117119921875,0.17791911091633,3.586514087404395,1.234375,-0.3039550781,-0.1391601563,-0.6518554688,0.2099609375,-0.0693359375,-0.2235107422,0.1480712891,-0.2553710938
1.905,1,0,0,9.773131177248146,-0.0918026699081485,0.8062474090698755,9.797073193359376,0.148365684172244,-0.02177227135102985,9.102754712404396,0.19452888487543699,3.572148876953125,1.034179688,-0.251953125,-0.07995605469,-0.587890625,0.1116333008,-0.05960083008,-0.2386474609,0.1555175781,-0.248046875
1.91,1,0,0,9.792284790529395,-0.0932242271429469,0.7990648040403735,9.80665,0.17043723066092098,-0.02401683540803925,9.088389501953126,0.201112939453125,3.586514087404395,0.9145507813,-0.04507446289,-0.07562255859,-0.6821289063,0.1711425781,-0.03192138672,-0.3686523438,0.2008056641,-0.2626953125
1.915,1,0,0,9.777919580078125,-0.0736591104505914,0.8092401611328125,9.792284790529395,0.1716343314664825,-0.0362310048127083,9.117119921875,0.21428104860850097,3.5889082888193853,0.8203125,-0.3032226563,-0.1798095703,-0.8671875,0.3369140625,0.1455078125,-0.3464355469,0.3083496094,-0.2099609375
1.92,1,0,0,9.76355437060752,-0.08768763580690014,0.8164227661623146,9.78270798388877,0.18450316539595152,-0.056001873210616546,9.088389501953126,0.2135328605437335,3.58172568359375,0.7104492188,-0.1644287109,-0.07501220703,-0.7900390625,0.05569458008,0.07092285156,-0.2541503906,0.2017822266,-0.2174072266
1.925,1,0,0,9.76355437060752,-0.08626607857210175,0.810437261938374,9.78749638671875,0.163104988116532,-0.0459387443524093,9.117119921875,0.19677344897167298,3.58411988500874,0.5317382813,-0.07409667969,-0.04666137695,-1.021484375,0.2048339844,0.03280639648,-0.4223632813,0.2166748047,-0.1555175781
1.93,1,0,0,9.777919580078125,-0.0945709655810752,0.8254010223511256,9.797073193359376,0.172083244305343,-0.03591302490234375,9.11233151904502,0.2144306862214545,3.5984850954600103,0.4809570313,0.1732177734,-0.02740478516,-0.9165039063,0.1832275391,0.1362304688,-0.4306640625,0.3471679688,-0.07232666016
1.935,1,0,0,9.7683427734375,-0.10601824225613249,0.8206126190308131,9.792284790529395,0.16879121701649902,-0.04051438122117435,9.107543115234375,0.2121861221252185,3.5889082888193853,0.4650878906,0.1563720703,-0.1342773438,-0.7124023438,-0.0122833252,0.09692382813,-0.4226074219,0.3010253906,-0.1330566406
1.94,1,0,0,9.74918916015625,-0.09172785110167175,0.7990648040403735,9.792284790529395,0.150236154187063,-0.04275894527818375,9.09796630859375,0.196174898519859,3.5889082888193853,0.2880859375,-0.1071166992,0.04376220703,-0.4780273438,-0.1158447266,0.02049255371,-0.3151855469,0.1938476563,-0.2094726563
1.945,1,0,0,9.758765966796876,-0.0921019451144422,0.810437261938374,9.797073193359376,0.1467944892852655,-0.042347441867078256,9.102754712404396,0.1886930183625165,3.574543078368115,0.2902832031,0.1162109375,-0.05087280273,-0.1931152344,-0.08819580078,0.1674804688,-0.3298339844,0.07995605469,-0.0712890625
1.95,1,0,0,9.773131177248146,-0.08252513847381719,0.797867703234812,9.792284790529395,0.1361702194520325,-0.0405517906195094,9.102754712404396,0.1831564269774365,3.574543078368115,0.02449035645,0.03610229492,0.09423828125,-0.1201782227,-0.03317260742,0.2308349609,-0.2004394531,0.1341552734,-0.05697631836
1.955,1,0,0,9.76355437060752,-0.113574941268985,0.8164227661623146,9.80186159717002,0.154276369442608,-0.046350247763514804,9.09796630859375,0.21098902131965702,3.567360474123145,-0.166015625,-0.0213470459,0.07867431641,-0.04916381836,-0.1389160156,0.2407226563,-0.07873535156,0.1884765625,-0.02745056152
1.96,1,0,0,9.753977563966895,-0.116043961735618,0.8248024718993114,9.797073193359376,0.1361702194520325,-0.0378209043547244,9.107543115234375,0.212635034964079,3.5697546755381353,0.09136962891,0.1223754883,0.1088867188,-0.1384277344,-0.2629394531,0.2763671875,-0.009490966797,0.09820556641,0.1483154297
1.965,1,0,0,9.78270798388877,-0.1194108077819055,0.8194155182252515,9.80186159717002,0.1408089851593915,-0.04773439559997815,9.121908325685645,0.2059013427734375,3.600879296875,0.005851745605,0.1584472656,0.01611328125,-0.1088256836,-0.1020507813,0.4384765625,0.04376220703,0.1217651367,0.2091064453
1.97,1,0,0,9.777919580078125,-0.10489596020801449,0.8289923248658765,9.81622681154395,0.143876555979772,-0.031554829697207604,9.11233151904502,0.1804629501404065,3.57693728076377,0.05004882813,0.2366943359,0.0153427124,0.007305145264,0.09881591797,0.47265625,-0.01705932617,0.09796142578,0.1253662109
1.975,1,0,0,9.777919580078125,-0.11282675320421749,0.8313865264769995,9.82580361328125,0.1276408760040155,-0.0185737675629268,9.126696728515626,0.18794483029774903,3.57693728076377,0.01885986328,0.3002929688,0.2209472656,0.1223754883,-0.02151489258,0.2846679688,0.09655761719,0.2054443359,0.1166381836
1.98,1,0,0,9.758765966796876,-0.09225158271758906,0.8307879761232521,9.81622681154395,0.142829092787164,-0.0325648835209005,9.136273535156251,0.1916857704254535,3.574543078368115,-0.05908203125,0.3200683594,0.02914428711,0.1794433594,0.1169433594,0.3095703125,0.02836608887,0.1508789063,-0.004867553711
1.985,1,0,0,9.758765966796876,-0.09801263046325939,0.836174929797312,9.80665,0.1457470260926575,-0.0368856693277016,9.126696728515626,0.180014037301546,3.58172568359375,-0.2145996094,0.1104125977,0.1762695313,0.3767089844,0.1119995117,0.1018066406,0.07427978516,0.1216430664,0.1553955078
1.99,1,0,0,9.777919580078125,-0.09995791927474851,0.814627114904939,9.81622681154395,0.1416319919816025,-0.01888239512615925,9.117119921875,0.180313312527453,3.5793314821787603,-0.271484375,0.232421875,0.09783935547,0.4846191406,0.1137084961,0.07458496094,0.158203125,0.1074829102,0.26953125
1.995,1,0,0,9.758765966796876,-0.10377367815989649,0.820014068578999,9.78749638671875,0.137142863887197,-0.03507131338586855,9.117119921875,0.16804302904979798,3.5889082888193853,-0.2807617188,0.3100585938,0.1196899414,0.615234375,0.2078857422,0.201171875,0.2495117188,0.1535644531,0.2459716797
2.0,1,0,0,9.758765966796876,-0.0971148048443783,0.8277952239622485,9.797073193359376,0.138489602305712,-0.047023616982578946,9.121908325685645,0.184952078234812,3.60327349828999,-0.2218017578,0.07879638672,0.1231079102,0.5102539063,0.1756591797,0.1823730469,0.3645019531,0.0546875,0.2458496094
2.005,1,0,0,9.7683427734375,-0.10601824225613249,0.8206126190308131,9.792284790529395,0.138788877531619,-0.049567456245882054,9.11233151904502,0.2064998932252515,3.593696691649365,-0.3518066406,0.07739257813,0.18359375,0.5952148438,0.1392822266,0.4223632813,0.3193359375,-0.0145111084,0.2313232422
2.01,1,0,0,9.76355437060752,-0.09539397239347955,0.830189425671438,9.792284790529395,0.143427643238978,-0.0330512057286761,9.107543115234375,0.2056020675475305,3.57693728076377,-0.3811035156,0.02354431152,0.2529296875,0.5610351563,0.1618652344,0.5356445313,0.2497558594,0.1312255859,0.3681640625
2.015,1,0,0,9.78749638671875,-0.09614216041902045,0.8337807281861891,9.80665,0.1519569865889285,-0.02723404388059985,9.102754712404396,0.2036567786772015,3.567360474123145,-0.4689941406,0.1595458984,0.09790039063,0.5541992188,0.3149414063,0.6430664063,0.302734375,0.1628417969,0.4592285156
